subject,version,assignmentId,trial,attribute,rating,least_preferred,most_preferred,type,rt,rt2,full_or_lex,signed_weights,original_or_followup,stamp,id
60fde71d08e32b4b5bbdfc38,ma_choice_v4_rand_real1,60fde71d08e32b4b5bbdfc38,0,Closeness to parks,24,,,wad_att_rating,4152,,,,,2022-06-27 17:07:25,51997
60fde71d08e32b4b5bbdfc38,ma_choice_v4_rand_real1,60fde71d08e32b4b5bbdfc38,8,Size of home,51,,,wad_att_rating,2955,,,,,2022-06-27 17:07:28,51999
60fde71d08e32b4b5bbdfc38,ma_choice_v4_rand_real1,60fde71d08e32b4b5bbdfc38,7,Amount of traffic,24,,,wad_att_rating,2161,,,,,2022-06-27 17:07:30,52001
60fde71d08e32b4b5bbdfc38,ma_choice_v4_rand_real1,60fde71d08e32b4b5bbdfc38,4,Size of yard,38,,,wad_att_rating,2483,,,,,2022-06-27 17:07:33,52003
60fde71d08e32b4b5bbdfc38,ma_choice_v4_rand_real1,60fde71d08e32b4b5bbdfc38,6,Quality of heat/AC system,63,,,wad_att_rating,2147,,,,,2022-06-27 17:07:35,52004
60fde71d08e32b4b5bbdfc38,ma_choice_v4_rand_real1,60fde71d08e32b4b5bbdfc38,1,Noise pollution,38,,,wad_att_rating,3125,,,,,2022-06-27 17:07:38,52007
60fde71d08e32b4b5bbdfc38,ma_choice_v4_rand_real1,60fde71d08e32b4b5bbdfc38,5,Quality of kitchen,50,,,wad_att_rating,4376,,,,,2022-06-27 17:07:42,52009
60fde71d08e32b4b5bbdfc38,ma_choice_v4_rand_real1,60fde71d08e32b4b5bbdfc38,2,Reputation of closest school,75,,,wad_att_rating,5427,,,,,2022-06-27 17:07:48,52012
60fde71d08e32b4b5bbdfc38,ma_choice_v4_rand_real1,60fde71d08e32b4b5bbdfc38,3,Year building was built,12,,,wad_att_rating,2532,,,,,2022-06-27 17:07:50,52015
60fde71d08e32b4b5bbdfc38,ma_choice_v4_rand_real1,60fde71d08e32b4b5bbdfc38,0,Reputation of closest school,1,,,ew_att_rating,10596,,,,,2022-06-27 17:08:07,52022
60fde71d08e32b4b5bbdfc38,ma_choice_v4_rand_real1,60fde71d08e32b4b5bbdfc38,0,Noise pollution,1,,,ew_att_rating,10596,,,,,2022-06-27 17:08:07,52023
60fde71d08e32b4b5bbdfc38,ma_choice_v4_rand_real1,60fde71d08e32b4b5bbdfc38,0,Quality of kitchen,1,,,ew_att_rating,10596,,,,,2022-06-27 17:08:07,52024
60fde71d08e32b4b5bbdfc38,ma_choice_v4_rand_real1,60fde71d08e32b4b5bbdfc38,0,Size of home,1,,,ew_att_rating,10596,,,,,2022-06-27 17:08:07,52025
60fde71d08e32b4b5bbdfc38,ma_choice_v4_rand_real1,60fde71d08e32b4b5bbdfc38,0,Quality of heat/AC system,1,,,ew_att_rating,10596,,,,,2022-06-27 17:08:07,52026
60fde71d08e32b4b5bbdfc38,ma_choice_v4_rand_real1,60fde71d08e32b4b5bbdfc38,0,Size of yard,1,,,ew_att_rating,10596,,,,,2022-06-27 17:08:07,52027
60fde71d08e32b4b5bbdfc38,ma_choice_v4_rand_real1,60fde71d08e32b4b5bbdfc38,0,Closeness to parks,1,,,ew_att_rating,10596,,,,,2022-06-27 17:08:07,52028
60fde71d08e32b4b5bbdfc38,ma_choice_v4_rand_real1,60fde71d08e32b4b5bbdfc38,0,Amount of traffic,1,,,ew_att_rating,10596,,,,,2022-06-27 17:08:07,52029
60fde71d08e32b4b5bbdfc38,ma_choice_v4_rand_real1,60fde71d08e32b4b5bbdfc38,0,Reputation of closest school,1,,,lex_att_rating,2001,,,,,2022-06-27 17:08:13,52032
60fde71d08e32b4b5bbdfc38,ma_choice_v4_rand_real1,60fde71d08e32b4b5bbdfc38,0,Size of yard,1,0 square feet,600 square feet,direction,7018,,,,,2022-06-27 17:11:53,52040
60fde71d08e32b4b5bbdfc38,ma_choice_v4_rand_real1,60fde71d08e32b4b5bbdfc38,0,Size of yard,1,0 square feet,150 square feet,direction,4588,,,,,2022-06-27 17:11:58,52041
60fde71d08e32b4b5bbdfc38,ma_choice_v4_rand_real1,60fde71d08e32b4b5bbdfc38,0,Size of yard,1,150 square feet,300 square feet,direction,4098,,,,,2022-06-27 17:12:02,52042
60fde71d08e32b4b5bbdfc38,ma_choice_v4_rand_real1,60fde71d08e32b4b5bbdfc38,0,Size of yard,0,300 square feet,450 square feet,direction,2652,,,,,2022-06-27 17:12:05,52043
60fde71d08e32b4b5bbdfc38,ma_choice_v4_rand_real1,60fde71d08e32b4b5bbdfc38,0,Size of yard,0,450 square feet,600 square feet,direction,2151,,,,,2022-06-27 17:12:07,52044
60fde71d08e32b4b5bbdfc38,ma_choice_v4_rand_real1,60fde71d08e32b4b5bbdfc38,1,Year building was built,1,1950,2020,direction,4324,,,,,2022-06-27 17:12:13,52045
60fde71d08e32b4b5bbdfc38,ma_choice_v4_rand_real1,60fde71d08e32b4b5bbdfc38,1,Year building was built,1,1950,1968,direction,3447,,,,,2022-06-27 17:12:16,52046
60fde71d08e32b4b5bbdfc38,ma_choice_v4_rand_real1,60fde71d08e32b4b5bbdfc38,1,Year building was built,0,1968,1985,direction,2647,,,,,2022-06-27 17:12:19,52047
60fde71d08e32b4b5bbdfc38,ma_choice_v4_rand_real1,60fde71d08e32b4b5bbdfc38,1,Year building was built,1,1985,2003,direction,1795,,,,,2022-06-27 17:12:21,52048
60fde71d08e32b4b5bbdfc38,ma_choice_v4_rand_real1,60fde71d08e32b4b5bbdfc38,1,Year building was built,1,2003,2020,direction,1998,,,,,2022-06-27 17:12:23,52049
60fde71d08e32b4b5bbdfc38,ma_choice_v4_rand_real1,60fde71d08e32b4b5bbdfc38,2,Amount of traffic,0,Very Little,A Lot,direction,1516,,,,,2022-06-27 17:12:27,52050
60fde71d08e32b4b5bbdfc38,ma_choice_v4_rand_real1,60fde71d08e32b4b5bbdfc38,2,Amount of traffic,0,Very Little,A Little,direction,3102,,,,,2022-06-27 17:12:30,52051
60fde71d08e32b4b5bbdfc38,ma_choice_v4_rand_real1,60fde71d08e32b4b5bbdfc38,2,Amount of traffic,0,A Little,A Moderate Amount,direction,1732,,,,,2022-06-27 17:12:32,52052
60fde71d08e32b4b5bbdfc38,ma_choice_v4_rand_real1,60fde71d08e32b4b5bbdfc38,2,Amount of traffic,0,A Moderate Amount,A Lot,direction,1789,,,,,2022-06-27 17:12:33,52053
60fde71d08e32b4b5bbdfc38,ma_choice_v4_rand_real1,60fde71d08e32b4b5bbdfc38,3,Quality of kitchen,1,Very Bad,Very Good,direction,2968,,,,,2022-06-27 17:12:38,52054
60fde71d08e32b4b5bbdfc38,ma_choice_v4_rand_real1,60fde71d08e32b4b5bbdfc38,3,Quality of kitchen,1,Very Bad,Bad,direction,3134,,,,,2022-06-27 17:12:41,52055
60fde71d08e32b4b5bbdfc38,ma_choice_v4_rand_real1,60fde71d08e32b4b5bbdfc38,3,Quality of kitchen,1,Bad,Moderate,direction,2024,,,,,2022-06-27 17:12:43,52056
60fde71d08e32b4b5bbdfc38,ma_choice_v4_rand_real1,60fde71d08e32b4b5bbdfc38,3,Quality of kitchen,1,Moderate,Good,direction,2227,,,,,2022-06-27 17:12:45,52057
60fde71d08e32b4b5bbdfc38,ma_choice_v4_rand_real1,60fde71d08e32b4b5bbdfc38,3,Quality of kitchen,1,Good,Very Good,direction,1385,,,,,2022-06-27 17:12:46,52058
60fde71d08e32b4b5bbdfc38,ma_choice_v4_rand_real1,60fde71d08e32b4b5bbdfc38,4,Noise pollution,0,Very Low,Very High,direction,1836,,,,,2022-06-27 17:12:49,52059
60fde71d08e32b4b5bbdfc38,ma_choice_v4_rand_real1,60fde71d08e32b4b5bbdfc38,4,Noise pollution,0,Very Low,Low,direction,977,,,,,2022-06-27 17:12:50,52060
60fde71d08e32b4b5bbdfc38,ma_choice_v4_rand_real1,60fde71d08e32b4b5bbdfc38,4,Noise pollution,0,Low,Moderate,direction,1491,,,,,2022-06-27 17:12:52,52061
60fde71d08e32b4b5bbdfc38,ma_choice_v4_rand_real1,60fde71d08e32b4b5bbdfc38,4,Noise pollution,0,Moderate,High,direction,1097,,,,,2022-06-27 17:12:53,52062
60fde71d08e32b4b5bbdfc38,ma_choice_v4_rand_real1,60fde71d08e32b4b5bbdfc38,4,Noise pollution,0,High,Very High,direction,1549,,,,,2022-06-27 17:12:55,52063
60fde71d08e32b4b5bbdfc38,ma_choice_v4_rand_real1,60fde71d08e32b4b5bbdfc38,5,Reputation of closest school,1,Very Bad,Very Good,direction,1709,,,,,2022-06-27 17:12:57,52064
60fde71d08e32b4b5bbdfc38,ma_choice_v4_rand_real1,60fde71d08e32b4b5bbdfc38,5,Reputation of closest school,1,Very Bad,Bad,direction,1756,,,,,2022-06-27 17:12:59,52065
60fde71d08e32b4b5bbdfc38,ma_choice_v4_rand_real1,60fde71d08e32b4b5bbdfc38,5,Reputation of closest school,1,Bad,Moderate,direction,1049,,,,,2022-06-27 17:13:00,52066
60fde71d08e32b4b5bbdfc38,ma_choice_v4_rand_real1,60fde71d08e32b4b5bbdfc38,5,Reputation of closest school,1,Moderate,Good,direction,1340,,,,,2022-06-27 17:13:01,52067
60fde71d08e32b4b5bbdfc38,ma_choice_v4_rand_real1,60fde71d08e32b4b5bbdfc38,5,Reputation of closest school,1,Good,Very Good,direction,1025,,,,,2022-06-27 17:13:02,52068
60fde71d08e32b4b5bbdfc38,ma_choice_v4_rand_real1,60fde71d08e32b4b5bbdfc38,6,Closeness to parks,0,10 min away,30 min away,direction,1611,,,,,2022-06-27 17:13:06,52069
60fde71d08e32b4b5bbdfc38,ma_choice_v4_rand_real1,60fde71d08e32b4b5bbdfc38,6,Closeness to parks,0,10 min away,15 min away,direction,1362,,,,,2022-06-27 17:13:06,52070
60fde71d08e32b4b5bbdfc38,ma_choice_v4_rand_real1,60fde71d08e32b4b5bbdfc38,6,Closeness to parks,0,15 min away,20 min away,direction,2348,,,,,2022-06-27 17:13:09,52071
60fde71d08e32b4b5bbdfc38,ma_choice_v4_rand_real1,60fde71d08e32b4b5bbdfc38,6,Closeness to parks,0,20 min away,25 min away,direction,929,,,,,2022-06-27 17:13:10,52072
60fde71d08e32b4b5bbdfc38,ma_choice_v4_rand_real1,60fde71d08e32b4b5bbdfc38,6,Closeness to parks,0,25 min away,30 min away,direction,1106,,,,,2022-06-27 17:13:11,52073
60fde71d08e32b4b5bbdfc38,ma_choice_v4_rand_real1,60fde71d08e32b4b5bbdfc38,7,Size of home,1,600 square feet,1800 square feet,direction,1025,,,,,2022-06-27 17:13:13,52074
60fde71d08e32b4b5bbdfc38,ma_choice_v4_rand_real1,60fde71d08e32b4b5bbdfc38,7,Size of home,1,900 square feet,1200 square feet,direction,1017,,,,,2022-06-27 17:13:49,52075
60fde71d08e32b4b5bbdfc38,ma_choice_v4_rand_real1,60fde71d08e32b4b5bbdfc38,7,Size of home,1,600 square feet,900 square feet,direction,1096,,,,,2022-06-27 17:13:49,52076
60fde71d08e32b4b5bbdfc38,ma_choice_v4_rand_real1,60fde71d08e32b4b5bbdfc38,7,Size of home,1,1200 square feet,1500 square feet,direction,1177,,,,,2022-06-27 17:13:49,52077
60fde71d08e32b4b5bbdfc38,ma_choice_v4_rand_real1,60fde71d08e32b4b5bbdfc38,8,Quality of heat/AC system,1,Moderate,Good,direction,824,,,,,2022-06-27 17:14:07,52081
60fde71d08e32b4b5bbdfc38,ma_choice_v4_rand_real1,60fde71d08e32b4b5bbdfc38,8,Quality of heat/AC system,1,Very Bad,Very Good,direction,1355,,,,,2022-06-27 17:14:07,52082
60fde71d08e32b4b5bbdfc38,ma_choice_v4_rand_real1,60fde71d08e32b4b5bbdfc38,8,Quality of heat/AC system,1,Good,Very Good,direction,792,,,,,2022-06-27 17:14:07,52083
60fde71d08e32b4b5bbdfc38,ma_choice_v4_rand_real1,60fde71d08e32b4b5bbdfc38,7,Size of home,1,1500 square feet,1800 square feet,direction,1069,,,,,2022-06-27 17:14:07,52084
60fde71d08e32b4b5bbdfc38,ma_choice_v4_rand_real1,60fde71d08e32b4b5bbdfc38,8,Quality of heat/AC system,1,Very Bad,Bad,direction,895,,,,,2022-06-27 17:14:07,52085
60fde71d08e32b4b5bbdfc38,ma_choice_v4_rand_real1,60fde71d08e32b4b5bbdfc38,8,Quality of heat/AC system,1,Bad,Moderate,direction,921,,,,,2022-06-27 17:14:07,52086
60814160d0e44b2394108d4c,ma_choice_v4_rand_real1,60814160d0e44b2394108d4c,0,Quality of heat/AC system,1,,,ew_att_rating,10328,,,,,2022-06-27 17:26:39,52383
60814160d0e44b2394108d4c,ma_choice_v4_rand_real1,60814160d0e44b2394108d4c,0,Size of yard,1,,,ew_att_rating,10328,,,,,2022-06-27 17:26:39,52384
60814160d0e44b2394108d4c,ma_choice_v4_rand_real1,60814160d0e44b2394108d4c,0,Reputation of closest school,1,,,ew_att_rating,10328,,,,,2022-06-27 17:26:39,52385
60814160d0e44b2394108d4c,ma_choice_v4_rand_real1,60814160d0e44b2394108d4c,0,Quality of heat/AC system,1,,,lex_att_rating,2669,,,,,2022-06-27 17:26:47,52392
60814160d0e44b2394108d4c,ma_choice_v4_rand_real1,60814160d0e44b2394108d4c,3,Year building was built,0,,,wad_att_rating,3013,,,,,2022-06-27 17:26:53,52394
60814160d0e44b2394108d4c,ma_choice_v4_rand_real1,60814160d0e44b2394108d4c,1,Noise pollution,0,,,wad_att_rating,1630,,,,,2022-06-27 17:26:55,52396
60814160d0e44b2394108d4c,ma_choice_v4_rand_real1,60814160d0e44b2394108d4c,6,Quality of heat/AC system,93,,,wad_att_rating,6162,,,,,2022-06-27 17:27:01,52398
60814160d0e44b2394108d4c,ma_choice_v4_rand_real1,60814160d0e44b2394108d4c,5,Quality of kitchen,0,,,wad_att_rating,7983,,,,,2022-06-27 17:27:09,52400
60814160d0e44b2394108d4c,ma_choice_v4_rand_real1,60814160d0e44b2394108d4c,2,Reputation of closest school,69,,,wad_att_rating,5432,,,,,2022-06-27 17:27:15,52401
60814160d0e44b2394108d4c,ma_choice_v4_rand_real1,60814160d0e44b2394108d4c,4,Size of yard,87,,,wad_att_rating,4058,,,,,2022-06-27 17:27:19,52403
60814160d0e44b2394108d4c,ma_choice_v4_rand_real1,60814160d0e44b2394108d4c,0,Closeness to parks,0,,,wad_att_rating,1071,,,,,2022-06-27 17:27:20,52404
60814160d0e44b2394108d4c,ma_choice_v4_rand_real1,60814160d0e44b2394108d4c,7,Amount of traffic,0,,,wad_att_rating,898,,,,,2022-06-27 17:27:21,52405
60814160d0e44b2394108d4c,ma_choice_v4_rand_real1,60814160d0e44b2394108d4c,8,Size of home,0,,,wad_att_rating,848,,,,,2022-06-27 17:27:22,52407
60814160d0e44b2394108d4c,ma_choice_v4_rand_real1,60814160d0e44b2394108d4c,0,Size of home,1,600 square feet,1800 square feet,direction,10697,,,,,2022-06-27 17:32:10,52491
60814160d0e44b2394108d4c,ma_choice_v4_rand_real1,60814160d0e44b2394108d4c,0,Size of home,1,600 square feet,900 square feet,direction,6272,,,,,2022-06-27 17:32:16,52494
60814160d0e44b2394108d4c,ma_choice_v4_rand_real1,60814160d0e44b2394108d4c,0,Size of home,1,900 square feet,1200 square feet,direction,5096,,,,,2022-06-27 17:32:21,52496
60814160d0e44b2394108d4c,ma_choice_v4_rand_real1,60814160d0e44b2394108d4c,0,Size of home,1,1200 square feet,1500 square feet,direction,3634,,,,,2022-06-27 17:32:25,52498
60814160d0e44b2394108d4c,ma_choice_v4_rand_real1,60814160d0e44b2394108d4c,0,Size of home,1,1500 square feet,1800 square feet,direction,4283,,,,,2022-06-27 17:32:29,52500
60814160d0e44b2394108d4c,ma_choice_v4_rand_real1,60814160d0e44b2394108d4c,1,Noise pollution,0,Very Low,Very High,direction,5029,,,,,2022-06-27 17:32:36,52504
60814160d0e44b2394108d4c,ma_choice_v4_rand_real1,60814160d0e44b2394108d4c,1,Noise pollution,0,Very Low,Low,direction,5077,,,,,2022-06-27 17:32:41,52508
60814160d0e44b2394108d4c,ma_choice_v4_rand_real1,60814160d0e44b2394108d4c,1,Noise pollution,0,Low,Moderate,direction,3603,,,,,2022-06-27 17:32:44,52510
60814160d0e44b2394108d4c,ma_choice_v4_rand_real1,60814160d0e44b2394108d4c,1,Noise pollution,0,Moderate,High,direction,4649,,,,,2022-06-27 17:32:49,52514
60814160d0e44b2394108d4c,ma_choice_v4_rand_real1,60814160d0e44b2394108d4c,1,Noise pollution,0,High,Very High,direction,4401,,,,,2022-06-27 17:32:53,52518
60814160d0e44b2394108d4c,ma_choice_v4_rand_real1,60814160d0e44b2394108d4c,2,Reputation of closest school,1,Very Bad,Very Good,direction,3564,,,,,2022-06-27 17:32:58,52523
60814160d0e44b2394108d4c,ma_choice_v4_rand_real1,60814160d0e44b2394108d4c,2,Reputation of closest school,1,Very Bad,Bad,direction,4408,,,,,2022-06-27 17:33:03,52526
59014ee029f42300013cc5b7,ma_choice_v4_rand_real1,59014ee029f42300013cc5b7,0,Size of yard,1,,,ew_att_rating,19777,,,,,2022-06-27 17:33:04,52528
59014ee029f42300013cc5b7,ma_choice_v4_rand_real1,59014ee029f42300013cc5b7,0,Size of home,1,,,ew_att_rating,19777,,,,,2022-06-27 17:33:04,52529
59014ee029f42300013cc5b7,ma_choice_v4_rand_real1,59014ee029f42300013cc5b7,0,Quality of kitchen,1,,,ew_att_rating,19777,,,,,2022-06-27 17:33:04,52530
59014ee029f42300013cc5b7,ma_choice_v4_rand_real1,59014ee029f42300013cc5b7,0,Noise pollution,1,,,ew_att_rating,19777,,,,,2022-06-27 17:33:04,52532
60814160d0e44b2394108d4c,ma_choice_v4_rand_real1,60814160d0e44b2394108d4c,2,Reputation of closest school,1,Bad,Moderate,direction,7362,,,,,2022-06-27 17:33:10,52535
60814160d0e44b2394108d4c,ma_choice_v4_rand_real1,60814160d0e44b2394108d4c,2,Reputation of closest school,1,Moderate,Good,direction,4752,,,,,2022-06-27 17:33:15,52538
59014ee029f42300013cc5b7,ma_choice_v4_rand_real1,59014ee029f42300013cc5b7,0,Size of yard,1,,,lex_att_rating,4469,,,,,2022-06-27 17:33:18,52539
60814160d0e44b2394108d4c,ma_choice_v4_rand_real1,60814160d0e44b2394108d4c,2,Reputation of closest school,1,Good,Very Good,direction,3824,,,,,2022-06-27 17:33:19,52541
60814160d0e44b2394108d4c,ma_choice_v4_rand_real1,60814160d0e44b2394108d4c,3,Amount of traffic,0,Very Little,A Lot,direction,4042,,,,,2022-06-27 17:33:24,52543
60814160d0e44b2394108d4c,ma_choice_v4_rand_real1,60814160d0e44b2394108d4c,3,Amount of traffic,0,Very Little,A Little,direction,4799,,,,,2022-06-27 17:33:29,52546
59014ee029f42300013cc5b7,ma_choice_v4_rand_real1,59014ee029f42300013cc5b7,6,Quality of heat/AC system,11,,,wad_att_rating,8987,,,,,2022-06-27 17:33:32,52550
60814160d0e44b2394108d4c,ma_choice_v4_rand_real1,60814160d0e44b2394108d4c,3,Amount of traffic,0,A Little,A Moderate Amount,direction,3917,,,,,2022-06-27 17:33:33,52551
60814160d0e44b2394108d4c,ma_choice_v4_rand_real1,60814160d0e44b2394108d4c,3,Amount of traffic,0,A Moderate Amount,A Lot,direction,3754,,,,,2022-06-27 17:33:36,52553
59014ee029f42300013cc5b7,ma_choice_v4_rand_real1,59014ee029f42300013cc5b7,0,Closeness to parks,0,,,wad_att_rating,4063,,,,,2022-06-27 17:33:36,52554
60814160d0e44b2394108d4c,ma_choice_v4_rand_real1,60814160d0e44b2394108d4c,4,Year building was built,1,1950,2020,direction,2651,,,,,2022-06-27 17:33:40,52557
59014ee029f42300013cc5b7,ma_choice_v4_rand_real1,59014ee029f42300013cc5b7,1,Noise pollution,83,,,wad_att_rating,4566,,,,,2022-06-27 17:33:41,52558
60814160d0e44b2394108d4c,ma_choice_v4_rand_real1,60814160d0e44b2394108d4c,4,Year building was built,1,1950,1968,direction,3377,,,,,2022-06-27 17:33:44,52560
59014ee029f42300013cc5b7,ma_choice_v4_rand_real1,59014ee029f42300013cc5b7,5,Quality of kitchen,83,,,wad_att_rating,4920,,,,,2022-06-27 17:33:46,52563
60814160d0e44b2394108d4c,ma_choice_v4_rand_real1,60814160d0e44b2394108d4c,4,Year building was built,1,1968,1985,direction,2383,,,,,2022-06-27 17:33:46,52564
60814160d0e44b2394108d4c,ma_choice_v4_rand_real1,60814160d0e44b2394108d4c,4,Year building was built,1,1985,2003,direction,3450,,,,,2022-06-27 17:33:50,52568
59014ee029f42300013cc5b7,ma_choice_v4_rand_real1,59014ee029f42300013cc5b7,3,Year building was built,0,,,wad_att_rating,4679,,,,,2022-06-27 17:33:51,52569
60814160d0e44b2394108d4c,ma_choice_v4_rand_real1,60814160d0e44b2394108d4c,4,Year building was built,1,2003,2020,direction,2280,,,,,2022-06-27 17:33:52,52571
60814160d0e44b2394108d4c,ma_choice_v4_rand_real1,60814160d0e44b2394108d4c,5,Quality of heat/AC system,1,Very Bad,Very Good,direction,2090,,,,,2022-06-27 17:33:55,52574
59014ee029f42300013cc5b7,ma_choice_v4_rand_real1,59014ee029f42300013cc5b7,8,Size of home,24,,,wad_att_rating,5345,,,,,2022-06-27 17:33:56,52575
60814160d0e44b2394108d4c,ma_choice_v4_rand_real1,60814160d0e44b2394108d4c,5,Quality of heat/AC system,1,Very Bad,Bad,direction,3237,,,,,2022-06-27 17:33:58,52578
59014ee029f42300013cc5b7,ma_choice_v4_rand_real1,59014ee029f42300013cc5b7,7,Amount of traffic,13,,,wad_att_rating,4468,,,,,2022-06-27 17:34:00,52580
60814160d0e44b2394108d4c,ma_choice_v4_rand_real1,60814160d0e44b2394108d4c,5,Quality of heat/AC system,1,Bad,Moderate,direction,2443,,,,,2022-06-27 17:34:01,52581
59014ee029f42300013cc5b7,ma_choice_v4_rand_real1,59014ee029f42300013cc5b7,2,Reputation of closest school,0,,,wad_att_rating,2517,,,,,2022-06-27 17:34:03,52583
60814160d0e44b2394108d4c,ma_choice_v4_rand_real1,60814160d0e44b2394108d4c,5,Quality of heat/AC system,1,Moderate,Good,direction,2400,,,,,2022-06-27 17:34:03,52584
59014ee029f42300013cc5b7,ma_choice_v4_rand_real1,59014ee029f42300013cc5b7,4,Size of yard,83,,,wad_att_rating,3841,,,,,2022-06-27 17:34:07,52586
60814160d0e44b2394108d4c,ma_choice_v4_rand_real1,60814160d0e44b2394108d4c,5,Quality of heat/AC system,1,Good,Very Good,direction,5189,,,,,2022-06-27 17:34:08,52589
60814160d0e44b2394108d4c,ma_choice_v4_rand_real1,60814160d0e44b2394108d4c,6,Closeness to parks,1,10 min away,30 min away,direction,7549,,,,,2022-06-27 17:34:17,52593
60814160d0e44b2394108d4c,ma_choice_v4_rand_real1,60814160d0e44b2394108d4c,6,Closeness to parks,1,10 min away,15 min away,direction,1944,,,,,2022-06-27 17:34:19,52595
60814160d0e44b2394108d4c,ma_choice_v4_rand_real1,60814160d0e44b2394108d4c,6,Closeness to parks,1,15 min away,20 min away,direction,1630,,,,,2022-06-27 17:34:20,52596
60814160d0e44b2394108d4c,ma_choice_v4_rand_real1,60814160d0e44b2394108d4c,6,Closeness to parks,1,20 min away,25 min away,direction,2291,,,,,2022-06-27 17:34:23,52598
60814160d0e44b2394108d4c,ma_choice_v4_rand_real1,60814160d0e44b2394108d4c,6,Closeness to parks,1,25 min away,30 min away,direction,1987,,,,,2022-06-27 17:34:25,52600
60814160d0e44b2394108d4c,ma_choice_v4_rand_real1,60814160d0e44b2394108d4c,7,Size of yard,1,0 square feet,600 square feet,direction,1785,,,,,2022-06-27 17:34:28,52601
60814160d0e44b2394108d4c,ma_choice_v4_rand_real1,60814160d0e44b2394108d4c,7,Size of yard,1,0 square feet,150 square feet,direction,3106,,,,,2022-06-27 17:34:31,52603
60814160d0e44b2394108d4c,ma_choice_v4_rand_real1,60814160d0e44b2394108d4c,7,Size of yard,1,150 square feet,300 square feet,direction,2754,,,,,2022-06-27 17:34:33,52604
60814160d0e44b2394108d4c,ma_choice_v4_rand_real1,60814160d0e44b2394108d4c,7,Size of yard,1,300 square feet,450 square feet,direction,2250,,,,,2022-06-27 17:34:36,52605
60814160d0e44b2394108d4c,ma_choice_v4_rand_real1,60814160d0e44b2394108d4c,7,Size of yard,1,450 square feet,600 square feet,direction,2718,,,,,2022-06-27 17:34:38,52606
60814160d0e44b2394108d4c,ma_choice_v4_rand_real1,60814160d0e44b2394108d4c,8,Quality of kitchen,1,Very Bad,Very Good,direction,2356,,,,,2022-06-27 17:34:42,52607
60814160d0e44b2394108d4c,ma_choice_v4_rand_real1,60814160d0e44b2394108d4c,8,Quality of kitchen,1,Very Bad,Bad,direction,1955,,,,,2022-06-27 17:34:44,52608
60814160d0e44b2394108d4c,ma_choice_v4_rand_real1,60814160d0e44b2394108d4c,8,Quality of kitchen,1,Bad,Moderate,direction,1711,,,,,2022-06-27 17:34:46,52609
60814160d0e44b2394108d4c,ma_choice_v4_rand_real1,60814160d0e44b2394108d4c,8,Quality of kitchen,1,Moderate,Good,direction,1864,,,,,2022-06-27 17:34:48,52610
60814160d0e44b2394108d4c,ma_choice_v4_rand_real1,60814160d0e44b2394108d4c,8,Quality of kitchen,1,Good,Very Good,direction,2118,,,,,2022-06-27 17:34:50,52611
59014ee029f42300013cc5b7,ma_choice_v4_rand_real1,59014ee029f42300013cc5b7,0,Amount of traffic,0,Very Little,A Lot,direction,17801,,,,,2022-06-27 17:35:05,52613
59014ee029f42300013cc5b7,ma_choice_v4_rand_real1,59014ee029f42300013cc5b7,0,Amount of traffic,0,Very Little,A Little,direction,13534,,,,,2022-06-27 17:35:18,52618
59014ee029f42300013cc5b7,ma_choice_v4_rand_real1,59014ee029f42300013cc5b7,0,Amount of traffic,0,A Little,A Moderate Amount,direction,7419,,,,,2022-06-27 17:35:26,52621
59014ee029f42300013cc5b7,ma_choice_v4_rand_real1,59014ee029f42300013cc5b7,0,Amount of traffic,0,A Moderate Amount,A Lot,direction,5219,,,,,2022-06-27 17:35:31,52624
59014ee029f42300013cc5b7,ma_choice_v4_rand_real1,59014ee029f42300013cc5b7,1,Size of yard,1,0 square feet,600 square feet,direction,3391,,,,,2022-06-27 17:35:36,52626
59014ee029f42300013cc5b7,ma_choice_v4_rand_real1,59014ee029f42300013cc5b7,1,Size of yard,1,0 square feet,150 square feet,direction,2829,,,,,2022-06-27 17:35:39,52629
59014ee029f42300013cc5b7,ma_choice_v4_rand_real1,59014ee029f42300013cc5b7,1,Size of yard,1,150 square feet,300 square feet,direction,3067,,,,,2022-06-27 17:35:42,52631
59014ee029f42300013cc5b7,ma_choice_v4_rand_real1,59014ee029f42300013cc5b7,1,Size of yard,1,300 square feet,450 square feet,direction,3033,,,,,2022-06-27 17:35:45,52633
59014ee029f42300013cc5b7,ma_choice_v4_rand_real1,59014ee029f42300013cc5b7,1,Size of yard,1,450 square feet,600 square feet,direction,2724,,,,,2022-06-27 17:35:48,52635
59014ee029f42300013cc5b7,ma_choice_v4_rand_real1,59014ee029f42300013cc5b7,2,Year building was built,0,1950,2020,direction,3971,,,,,2022-06-27 17:35:53,52639
59014ee029f42300013cc5b7,ma_choice_v4_rand_real1,59014ee029f42300013cc5b7,2,Year building was built,1,1950,1968,direction,3889,,,,,2022-06-27 17:35:57,52641
59014ee029f42300013cc5b7,ma_choice_v4_rand_real1,59014ee029f42300013cc5b7,2,Year building was built,1,1968,1985,direction,3466,,,,,2022-06-27 17:36:01,52642
59014ee029f42300013cc5b7,ma_choice_v4_rand_real1,59014ee029f42300013cc5b7,2,Year building was built,0,1985,2003,direction,3667,,,,,2022-06-27 17:36:05,52643
59014ee029f42300013cc5b7,ma_choice_v4_rand_real1,59014ee029f42300013cc5b7,2,Year building was built,0,2003,2020,direction,2593,,,,,2022-06-27 17:36:07,52644
59014ee029f42300013cc5b7,ma_choice_v4_rand_real1,59014ee029f42300013cc5b7,3,Noise pollution,0,Very Low,Very High,direction,3373,,,,,2022-06-27 17:36:12,52645
59014ee029f42300013cc5b7,ma_choice_v4_rand_real1,59014ee029f42300013cc5b7,3,Noise pollution,0,Very Low,Low,direction,2342,,,,,2022-06-27 17:36:15,52646
59014ee029f42300013cc5b7,ma_choice_v4_rand_real1,59014ee029f42300013cc5b7,3,Noise pollution,0,Low,Moderate,direction,2283,,,,,2022-06-27 17:36:17,52647
59014ee029f42300013cc5b7,ma_choice_v4_rand_real1,59014ee029f42300013cc5b7,3,Noise pollution,0,Moderate,High,direction,2604,,,,,2022-06-27 17:36:19,52648
59014ee029f42300013cc5b7,ma_choice_v4_rand_real1,59014ee029f42300013cc5b7,3,Noise pollution,0,High,Very High,direction,2851,,,,,2022-06-27 17:36:22,52649
59014ee029f42300013cc5b7,ma_choice_v4_rand_real1,59014ee029f42300013cc5b7,4,Quality of heat/AC system,1,Very Bad,Very Good,direction,6632,,,,,2022-06-27 17:36:31,52650
59014ee029f42300013cc5b7,ma_choice_v4_rand_real1,59014ee029f42300013cc5b7,4,Quality of heat/AC system,1,Very Bad,Bad,direction,3165,,,,,2022-06-27 17:36:34,52651
59014ee029f42300013cc5b7,ma_choice_v4_rand_real1,59014ee029f42300013cc5b7,4,Quality of heat/AC system,1,Bad,Moderate,direction,2617,,,,,2022-06-27 17:36:36,52652
59014ee029f42300013cc5b7,ma_choice_v4_rand_real1,59014ee029f42300013cc5b7,4,Quality of heat/AC system,0,Moderate,Good,direction,2769,,,,,2022-06-27 17:36:39,52653
59014ee029f42300013cc5b7,ma_choice_v4_rand_real1,59014ee029f42300013cc5b7,4,Quality of heat/AC system,0,Good,Very Good,direction,2436,,,,,2022-06-27 17:36:42,52654
59014ee029f42300013cc5b7,ma_choice_v4_rand_real1,59014ee029f42300013cc5b7,5,Closeness to parks,1,10 min away,30 min away,direction,4627,,,,,2022-06-27 17:36:48,52655
59014ee029f42300013cc5b7,ma_choice_v4_rand_real1,59014ee029f42300013cc5b7,5,Closeness to parks,1,10 min away,15 min away,direction,2920,,,,,2022-06-27 17:36:51,52656
59014ee029f42300013cc5b7,ma_choice_v4_rand_real1,59014ee029f42300013cc5b7,5,Closeness to parks,1,15 min away,20 min away,direction,2929,,,,,2022-06-27 17:36:53,52657
59014ee029f42300013cc5b7,ma_choice_v4_rand_real1,59014ee029f42300013cc5b7,5,Closeness to parks,0,20 min away,25 min away,direction,2421,,,,,2022-06-27 17:36:56,52658
59014ee029f42300013cc5b7,ma_choice_v4_rand_real1,59014ee029f42300013cc5b7,5,Closeness to parks,1,25 min away,30 min away,direction,2404,,,,,2022-06-27 17:36:58,52659
59014ee029f42300013cc5b7,ma_choice_v4_rand_real1,59014ee029f42300013cc5b7,6,Quality of kitchen,1,Very Bad,Very Good,direction,3461,,,,,2022-06-27 17:37:03,52660
59014ee029f42300013cc5b7,ma_choice_v4_rand_real1,59014ee029f42300013cc5b7,6,Quality of kitchen,1,Very Bad,Bad,direction,2958,,,,,2022-06-27 17:37:06,52661
59014ee029f42300013cc5b7,ma_choice_v4_rand_real1,59014ee029f42300013cc5b7,6,Quality of kitchen,1,Bad,Moderate,direction,2746,,,,,2022-06-27 17:37:09,52662
59014ee029f42300013cc5b7,ma_choice_v4_rand_real1,59014ee029f42300013cc5b7,6,Quality of kitchen,1,Moderate,Good,direction,3176,,,,,2022-06-27 17:37:12,52663
59014ee029f42300013cc5b7,ma_choice_v4_rand_real1,59014ee029f42300013cc5b7,6,Quality of kitchen,1,Good,Very Good,direction,4556,,,,,2022-06-27 17:37:17,52664
59014ee029f42300013cc5b7,ma_choice_v4_rand_real1,59014ee029f42300013cc5b7,7,Size of home,1,600 square feet,1800 square feet,direction,3395,,,,,2022-06-27 17:37:22,52665
59014ee029f42300013cc5b7,ma_choice_v4_rand_real1,59014ee029f42300013cc5b7,7,Size of home,1,600 square feet,900 square feet,direction,3099,,,,,2022-06-27 17:37:25,52666
59014ee029f42300013cc5b7,ma_choice_v4_rand_real1,59014ee029f42300013cc5b7,7,Size of home,1,900 square feet,1200 square feet,direction,2819,,,,,2022-06-27 17:37:28,52667
59014ee029f42300013cc5b7,ma_choice_v4_rand_real1,59014ee029f42300013cc5b7,7,Size of home,1,1200 square feet,1500 square feet,direction,3300,,,,,2022-06-27 17:37:32,52668
59014ee029f42300013cc5b7,ma_choice_v4_rand_real1,59014ee029f42300013cc5b7,7,Size of home,1,1500 square feet,1800 square feet,direction,3345,,,,,2022-06-27 17:37:35,52669
59014ee029f42300013cc5b7,ma_choice_v4_rand_real1,59014ee029f42300013cc5b7,8,Reputation of closest school,0,Very Bad,Very Good,direction,3245,,,,,2022-06-27 17:37:40,52670
59014ee029f42300013cc5b7,ma_choice_v4_rand_real1,59014ee029f42300013cc5b7,8,Reputation of closest school,1,Very Bad,Bad,direction,3566,,,,,2022-06-27 17:37:44,52671
59014ee029f42300013cc5b7,ma_choice_v4_rand_real1,59014ee029f42300013cc5b7,8,Reputation of closest school,1,Bad,Moderate,direction,2325,,,,,2022-06-27 17:37:46,52672
59014ee029f42300013cc5b7,ma_choice_v4_rand_real1,59014ee029f42300013cc5b7,8,Reputation of closest school,1,Moderate,Good,direction,2497,,,,,2022-06-27 17:37:48,52673
59014ee029f42300013cc5b7,ma_choice_v4_rand_real1,59014ee029f42300013cc5b7,8,Reputation of closest school,0,Good,Very Good,direction,3495,,,,,2022-06-27 17:37:52,52674
60469ae0450a7a0d20d26ee8,ma_choice_v4_rand_real1,60469ae0450a7a0d20d26ee8,0,Reputation of closest school,1,,,lex_att_rating,4963,,,,,2022-06-27 17:42:38,52700
60469ae0450a7a0d20d26ee8,ma_choice_v4_rand_real1,60469ae0450a7a0d20d26ee8,0,Reputation of closest school,1,,,ew_att_rating,16759,,,,,2022-06-27 17:43:02,52704
60469ae0450a7a0d20d26ee8,ma_choice_v4_rand_real1,60469ae0450a7a0d20d26ee8,0,Noise pollution,1,,,ew_att_rating,16759,,,,,2022-06-27 17:43:02,52705
60469ae0450a7a0d20d26ee8,ma_choice_v4_rand_real1,60469ae0450a7a0d20d26ee8,0,Quality of kitchen,1,,,ew_att_rating,16759,,,,,2022-06-27 17:43:02,52706
60469ae0450a7a0d20d26ee8,ma_choice_v4_rand_real1,60469ae0450a7a0d20d26ee8,0,Size of home,1,,,ew_att_rating,16759,,,,,2022-06-27 17:43:02,52707
60469ae0450a7a0d20d26ee8,ma_choice_v4_rand_real1,60469ae0450a7a0d20d26ee8,6,Quality of heat/AC system,26,,,wad_att_rating,3879,,,,,2022-06-27 17:43:10,52710
60469ae0450a7a0d20d26ee8,ma_choice_v4_rand_real1,60469ae0450a7a0d20d26ee8,5,Quality of kitchen,37,,,wad_att_rating,3610,,,,,2022-06-27 17:43:13,52711
60469ae0450a7a0d20d26ee8,ma_choice_v4_rand_real1,60469ae0450a7a0d20d26ee8,2,Reputation of closest school,75,,,wad_att_rating,3529,,,,,2022-06-27 17:43:17,52712
60469ae0450a7a0d20d26ee8,ma_choice_v4_rand_real1,60469ae0450a7a0d20d26ee8,8,Size of home,50,,,wad_att_rating,2696,,,,,2022-06-27 17:43:20,52714
60469ae0450a7a0d20d26ee8,ma_choice_v4_rand_real1,60469ae0450a7a0d20d26ee8,3,Year building was built,24,,,wad_att_rating,3429,,,,,2022-06-27 17:43:23,52716
60469ae0450a7a0d20d26ee8,ma_choice_v4_rand_real1,60469ae0450a7a0d20d26ee8,1,Noise pollution,62,,,wad_att_rating,3663,,,,,2022-06-27 17:43:27,52718
60469ae0450a7a0d20d26ee8,ma_choice_v4_rand_real1,60469ae0450a7a0d20d26ee8,7,Amount of traffic,38,,,wad_att_rating,2962,,,,,2022-06-27 17:43:30,52721
60469ae0450a7a0d20d26ee8,ma_choice_v4_rand_real1,60469ae0450a7a0d20d26ee8,4,Size of yard,12,,,wad_att_rating,4247,,,,,2022-06-27 17:43:34,52723
60469ae0450a7a0d20d26ee8,ma_choice_v4_rand_real1,60469ae0450a7a0d20d26ee8,0,Closeness to parks,0,,,wad_att_rating,2195,,,,,2022-06-27 17:43:36,52725
60469ae0450a7a0d20d26ee8,ma_choice_v4_rand_real1,60469ae0450a7a0d20d26ee8,0,Year building was built,0,1950,2020,direction,8664,,,,,2022-06-27 17:44:05,52739
60469ae0450a7a0d20d26ee8,ma_choice_v4_rand_real1,60469ae0450a7a0d20d26ee8,0,Year building was built,1,1950,1968,direction,4408,,,,,2022-06-27 17:44:10,52742
60469ae0450a7a0d20d26ee8,ma_choice_v4_rand_real1,60469ae0450a7a0d20d26ee8,0,Year building was built,1,1968,1985,direction,2792,,,,,2022-06-27 17:44:13,52744
60469ae0450a7a0d20d26ee8,ma_choice_v4_rand_real1,60469ae0450a7a0d20d26ee8,0,Year building was built,1,1985,2003,direction,4443,,,,,2022-06-27 17:44:17,52747
60469ae0450a7a0d20d26ee8,ma_choice_v4_rand_real1,60469ae0450a7a0d20d26ee8,0,Year building was built,0,2003,2020,direction,2275,,,,,2022-06-27 17:44:19,52749
60469ae0450a7a0d20d26ee8,ma_choice_v4_rand_real1,60469ae0450a7a0d20d26ee8,1,Quality of heat/AC system,1,Very Bad,Very Good,direction,5297,,,,,2022-06-27 17:44:26,52754
60469ae0450a7a0d20d26ee8,ma_choice_v4_rand_real1,60469ae0450a7a0d20d26ee8,1,Quality of heat/AC system,1,Very Bad,Bad,direction,6057,,,,,2022-06-27 17:44:32,52758
60469ae0450a7a0d20d26ee8,ma_choice_v4_rand_real1,60469ae0450a7a0d20d26ee8,1,Quality of heat/AC system,1,Bad,Moderate,direction,3025,,,,,2022-06-27 17:44:35,52760
60469ae0450a7a0d20d26ee8,ma_choice_v4_rand_real1,60469ae0450a7a0d20d26ee8,1,Quality of heat/AC system,1,Moderate,Good,direction,2726,,,,,2022-06-27 17:44:38,52763
60469ae0450a7a0d20d26ee8,ma_choice_v4_rand_real1,60469ae0450a7a0d20d26ee8,1,Quality of heat/AC system,1,Good,Very Good,direction,1808,,,,,2022-06-27 17:44:40,52765
60469ae0450a7a0d20d26ee8,ma_choice_v4_rand_real1,60469ae0450a7a0d20d26ee8,2,Size of yard,1,0 square feet,600 square feet,direction,4964,,,,,2022-06-27 17:44:45,52768
60469ae0450a7a0d20d26ee8,ma_choice_v4_rand_real1,60469ae0450a7a0d20d26ee8,2,Size of yard,1,0 square feet,150 square feet,direction,2925,,,,,2022-06-27 17:44:48,52770
60469ae0450a7a0d20d26ee8,ma_choice_v4_rand_real1,60469ae0450a7a0d20d26ee8,2,Size of yard,1,150 square feet,300 square feet,direction,2291,,,,,2022-06-27 17:44:51,52771
60469ae0450a7a0d20d26ee8,ma_choice_v4_rand_real1,60469ae0450a7a0d20d26ee8,2,Size of yard,0,300 square feet,450 square feet,direction,2891,,,,,2022-06-27 17:44:54,52772
60469ae0450a7a0d20d26ee8,ma_choice_v4_rand_real1,60469ae0450a7a0d20d26ee8,2,Size of yard,0,450 square feet,600 square feet,direction,3976,,,,,2022-06-27 17:44:58,52773
60469ae0450a7a0d20d26ee8,ma_choice_v4_rand_real1,60469ae0450a7a0d20d26ee8,3,Amount of traffic,0,Very Little,A Lot,direction,2362,,,,,2022-06-27 17:45:02,52774
60469ae0450a7a0d20d26ee8,ma_choice_v4_rand_real1,60469ae0450a7a0d20d26ee8,3,Amount of traffic,0,Very Little,A Little,direction,3093,,,,,2022-06-27 17:45:05,52775
60469ae0450a7a0d20d26ee8,ma_choice_v4_rand_real1,60469ae0450a7a0d20d26ee8,3,Amount of traffic,0,A Little,A Moderate Amount,direction,2391,,,,,2022-06-27 17:45:07,52776
60469ae0450a7a0d20d26ee8,ma_choice_v4_rand_real1,60469ae0450a7a0d20d26ee8,3,Amount of traffic,0,A Moderate Amount,A Lot,direction,1974,,,,,2022-06-27 17:45:09,52777
60469ae0450a7a0d20d26ee8,ma_choice_v4_rand_real1,60469ae0450a7a0d20d26ee8,4,Size of home,1,600 square feet,1800 square feet,direction,3264,,,,,2022-06-27 17:45:13,52778
60469ae0450a7a0d20d26ee8,ma_choice_v4_rand_real1,60469ae0450a7a0d20d26ee8,4,Size of home,1,600 square feet,900 square feet,direction,2092,,,,,2022-06-27 17:45:16,52779
60469ae0450a7a0d20d26ee8,ma_choice_v4_rand_real1,60469ae0450a7a0d20d26ee8,4,Size of home,1,900 square feet,1200 square feet,direction,4360,,,,,2022-06-27 17:45:20,52780
60469ae0450a7a0d20d26ee8,ma_choice_v4_rand_real1,60469ae0450a7a0d20d26ee8,4,Size of home,1,1200 square feet,1500 square feet,direction,2274,,,,,2022-06-27 17:45:22,52781
60469ae0450a7a0d20d26ee8,ma_choice_v4_rand_real1,60469ae0450a7a0d20d26ee8,4,Size of home,1,1500 square feet,1800 square feet,direction,1692,,,,,2022-06-27 17:45:24,52782
60469ae0450a7a0d20d26ee8,ma_choice_v4_rand_real1,60469ae0450a7a0d20d26ee8,5,Noise pollution,0,Very Low,Very High,direction,1797,,,,,2022-06-27 17:45:27,52783
60469ae0450a7a0d20d26ee8,ma_choice_v4_rand_real1,60469ae0450a7a0d20d26ee8,5,Noise pollution,0,Very Low,Low,direction,2058,,,,,2022-06-27 17:45:29,52784
60469ae0450a7a0d20d26ee8,ma_choice_v4_rand_real1,60469ae0450a7a0d20d26ee8,5,Noise pollution,0,Low,Moderate,direction,1525,,,,,2022-06-27 17:45:30,52785
60469ae0450a7a0d20d26ee8,ma_choice_v4_rand_real1,60469ae0450a7a0d20d26ee8,5,Noise pollution,0,Moderate,High,direction,1792,,,,,2022-06-27 17:45:32,52786
60469ae0450a7a0d20d26ee8,ma_choice_v4_rand_real1,60469ae0450a7a0d20d26ee8,5,Noise pollution,0,High,Very High,direction,1743,,,,,2022-06-27 17:45:34,52787
60469ae0450a7a0d20d26ee8,ma_choice_v4_rand_real1,60469ae0450a7a0d20d26ee8,6,Quality of kitchen,1,Very Bad,Very Good,direction,3548,,,,,2022-06-27 17:45:38,52788
60469ae0450a7a0d20d26ee8,ma_choice_v4_rand_real1,60469ae0450a7a0d20d26ee8,6,Quality of kitchen,1,Very Bad,Bad,direction,3058,,,,,2022-06-27 17:45:41,52789
60469ae0450a7a0d20d26ee8,ma_choice_v4_rand_real1,60469ae0450a7a0d20d26ee8,6,Quality of kitchen,1,Bad,Moderate,direction,2542,,,,,2022-06-27 17:45:44,52790
60469ae0450a7a0d20d26ee8,ma_choice_v4_rand_real1,60469ae0450a7a0d20d26ee8,6,Quality of kitchen,1,Moderate,Good,direction,2060,,,,,2022-06-27 17:45:46,52791
60469ae0450a7a0d20d26ee8,ma_choice_v4_rand_real1,60469ae0450a7a0d20d26ee8,6,Quality of kitchen,1,Good,Very Good,direction,2474,,,,,2022-06-27 17:45:48,52792
60469ae0450a7a0d20d26ee8,ma_choice_v4_rand_real1,60469ae0450a7a0d20d26ee8,7,Closeness to parks,0,10 min away,30 min away,direction,3731,,,,,2022-06-27 17:45:53,52793
60469ae0450a7a0d20d26ee8,ma_choice_v4_rand_real1,60469ae0450a7a0d20d26ee8,7,Closeness to parks,1,10 min away,15 min away,direction,1624,,,,,2022-06-27 17:45:55,52794
60469ae0450a7a0d20d26ee8,ma_choice_v4_rand_real1,60469ae0450a7a0d20d26ee8,7,Closeness to parks,0,15 min away,20 min away,direction,2341,,,,,2022-06-27 17:45:57,52795
60469ae0450a7a0d20d26ee8,ma_choice_v4_rand_real1,60469ae0450a7a0d20d26ee8,7,Closeness to parks,0,20 min away,25 min away,direction,2159,,,,,2022-06-27 17:45:59,52796
60469ae0450a7a0d20d26ee8,ma_choice_v4_rand_real1,60469ae0450a7a0d20d26ee8,7,Closeness to parks,0,25 min away,30 min away,direction,1743,,,,,2022-06-27 17:46:01,52797
60469ae0450a7a0d20d26ee8,ma_choice_v4_rand_real1,60469ae0450a7a0d20d26ee8,8,Reputation of closest school,1,Very Bad,Very Good,direction,1664,,,,,2022-06-27 17:46:04,52798
60469ae0450a7a0d20d26ee8,ma_choice_v4_rand_real1,60469ae0450a7a0d20d26ee8,8,Reputation of closest school,1,Very Bad,Bad,direction,2991,,,,,2022-06-27 17:46:07,52799
60469ae0450a7a0d20d26ee8,ma_choice_v4_rand_real1,60469ae0450a7a0d20d26ee8,8,Reputation of closest school,1,Bad,Moderate,direction,1694,,,,,2022-06-27 17:46:08,52800
60469ae0450a7a0d20d26ee8,ma_choice_v4_rand_real1,60469ae0450a7a0d20d26ee8,8,Reputation of closest school,1,Moderate,Good,direction,1358,,,,,2022-06-27 17:46:10,52801
60469ae0450a7a0d20d26ee8,ma_choice_v4_rand_real1,60469ae0450a7a0d20d26ee8,8,Reputation of closest school,1,Good,Very Good,direction,1541,,,,,2022-06-27 17:46:11,52802
5f2150b3319efd2d619a356b,ma_choice_v4_rand_real1,5f2150b3319efd2d619a356b,0,Closeness to parks,50,,,wad_att_rating,3613,,,,,2022-06-27 17:56:49,52900
5f2150b3319efd2d619a356b,ma_choice_v4_rand_real1,5f2150b3319efd2d619a356b,2,Reputation of closest school,50,,,wad_att_rating,3099,,,,,2022-06-27 17:56:52,52902
5f2150b3319efd2d619a356b,ma_choice_v4_rand_real1,5f2150b3319efd2d619a356b,4,Size of yard,62,,,wad_att_rating,2435,,,,,2022-06-27 17:56:55,52903
5f2150b3319efd2d619a356b,ma_choice_v4_rand_real1,5f2150b3319efd2d619a356b,6,Quality of heat/AC system,62,,,wad_att_rating,2099,,,,,2022-06-27 17:56:57,52905
5f2150b3319efd2d619a356b,ma_choice_v4_rand_real1,5f2150b3319efd2d619a356b,1,Noise pollution,62,,,wad_att_rating,2488,,,,,2022-06-27 17:56:59,52907
5f2150b3319efd2d619a356b,ma_choice_v4_rand_real1,5f2150b3319efd2d619a356b,7,Amount of traffic,62,,,wad_att_rating,4080,,,,,2022-06-27 17:57:04,52909
5f2150b3319efd2d619a356b,ma_choice_v4_rand_real1,5f2150b3319efd2d619a356b,3,Year building was built,75,,,wad_att_rating,6851,,,,,2022-06-27 17:57:10,52911
5f2150b3319efd2d619a356b,ma_choice_v4_rand_real1,5f2150b3319efd2d619a356b,5,Quality of kitchen,75,,,wad_att_rating,3837,,,,,2022-06-27 17:57:14,52913
5f2150b3319efd2d619a356b,ma_choice_v4_rand_real1,5f2150b3319efd2d619a356b,8,Size of home,75,,,wad_att_rating,2571,,,,,2022-06-27 17:57:17,52915
5f2150b3319efd2d619a356b,ma_choice_v4_rand_real1,5f2150b3319efd2d619a356b,0,Year building was built,1,,,ew_att_rating,4682,,,,,2022-06-27 17:57:27,52918
5f2150b3319efd2d619a356b,ma_choice_v4_rand_real1,5f2150b3319efd2d619a356b,0,Quality of heat/AC system,1,,,ew_att_rating,4682,,,,,2022-06-27 17:57:27,52919
5f2150b3319efd2d619a356b,ma_choice_v4_rand_real1,5f2150b3319efd2d619a356b,0,Reputation of closest school,1,,,ew_att_rating,4682,,,,,2022-06-27 17:57:27,52920
5f2150b3319efd2d619a356b,ma_choice_v4_rand_real1,5f2150b3319efd2d619a356b,0,Closeness to parks,1,,,ew_att_rating,4682,,,,,2022-06-27 17:57:27,52921
5f2150b3319efd2d619a356b,ma_choice_v4_rand_real1,5f2150b3319efd2d619a356b,0,Quality of kitchen,1,,,ew_att_rating,4682,,,,,2022-06-27 17:57:27,52922
5f2150b3319efd2d619a356b,ma_choice_v4_rand_real1,5f2150b3319efd2d619a356b,0,Amount of traffic,1,,,ew_att_rating,4682,,,,,2022-06-27 17:57:27,52923
5f2150b3319efd2d619a356b,ma_choice_v4_rand_real1,5f2150b3319efd2d619a356b,0,Noise pollution,1,,,ew_att_rating,4682,,,,,2022-06-27 17:57:27,52924
5f2150b3319efd2d619a356b,ma_choice_v4_rand_real1,5f2150b3319efd2d619a356b,0,Size of yard,1,,,ew_att_rating,4682,,,,,2022-06-27 17:57:27,52925
5f2150b3319efd2d619a356b,ma_choice_v4_rand_real1,5f2150b3319efd2d619a356b,0,Size of home,1,,,ew_att_rating,4682,,,,,2022-06-27 17:57:27,52926
5f2150b3319efd2d619a356b,ma_choice_v4_rand_real1,5f2150b3319efd2d619a356b,0,Size of home,1,,,lex_att_rating,7666,,,,,2022-06-27 17:57:42,52930
5c7010404a99c6000139851e,ma_choice_v4_rand_real1,5c7010404a99c6000139851e,0,Quality of kitchen,1,,,ew_att_rating,17132,,,,,2022-06-27 18:00:41,53013
5c7010404a99c6000139851e,ma_choice_v4_rand_real1,5c7010404a99c6000139851e,0,Size of home,1,,,ew_att_rating,17132,,,,,2022-06-27 18:00:41,53014
5c7010404a99c6000139851e,ma_choice_v4_rand_real1,5c7010404a99c6000139851e,0,Quality of heat/AC system,1,,,ew_att_rating,17132,,,,,2022-06-27 18:00:41,53015
5c7010404a99c6000139851e,ma_choice_v4_rand_real1,5c7010404a99c6000139851e,0,Size of yard,1,,,ew_att_rating,17132,,,,,2022-06-27 18:00:41,53016
5c7010404a99c6000139851e,ma_choice_v4_rand_real1,5c7010404a99c6000139851e,0,Amount of traffic,1,,,ew_att_rating,17132,,,,,2022-06-27 18:00:41,53017
5f2150b3319efd2d619a356b,ma_choice_v4_rand_real1,5f2150b3319efd2d619a356b,0,Size of yard,1,0 square feet,600 square feet,direction,6104,,,,,2022-06-27 18:00:53,53025
5f2150b3319efd2d619a356b,ma_choice_v4_rand_real1,5f2150b3319efd2d619a356b,0,Size of yard,1,0 square feet,150 square feet,direction,2176,,,,,2022-06-27 18:00:55,53027
5f2150b3319efd2d619a356b,ma_choice_v4_rand_real1,5f2150b3319efd2d619a356b,0,Size of yard,1,150 square feet,300 square feet,direction,2627,,,,,2022-06-27 18:00:58,53029
5f2150b3319efd2d619a356b,ma_choice_v4_rand_real1,5f2150b3319efd2d619a356b,0,Size of yard,1,300 square feet,450 square feet,direction,2295,,,,,2022-06-27 18:01:00,53032
5c7010404a99c6000139851e,ma_choice_v4_rand_real1,5c7010404a99c6000139851e,0,Size of home,1,,,lex_att_rating,5131,,,,,2022-06-27 18:01:02,53034
5f2150b3319efd2d619a356b,ma_choice_v4_rand_real1,5f2150b3319efd2d619a356b,0,Size of yard,1,450 square feet,600 square feet,direction,2278,,,,,2022-06-27 18:01:02,53035
5f2150b3319efd2d619a356b,ma_choice_v4_rand_real1,5f2150b3319efd2d619a356b,1,Reputation of closest school,1,Very Bad,Very Good,direction,1911,,,,,2022-06-27 18:01:05,53038
5f2150b3319efd2d619a356b,ma_choice_v4_rand_real1,5f2150b3319efd2d619a356b,1,Reputation of closest school,1,Very Bad,Bad,direction,2550,,,,,2022-06-27 18:01:08,53041
5c7010404a99c6000139851e,ma_choice_v4_rand_real1,5c7010404a99c6000139851e,5,Quality of kitchen,75,,,wad_att_rating,5396,,,,,2022-06-27 18:01:10,53043
5f2150b3319efd2d619a356b,ma_choice_v4_rand_real1,5f2150b3319efd2d619a356b,1,Reputation of closest school,1,Bad,Moderate,direction,4233,,,,,2022-06-27 18:01:12,53045
5c7010404a99c6000139851e,ma_choice_v4_rand_real1,5c7010404a99c6000139851e,3,Year building was built,49,,,wad_att_rating,2689,,,,,2022-06-27 18:01:13,53047
5f2150b3319efd2d619a356b,ma_choice_v4_rand_real1,5f2150b3319efd2d619a356b,1,Reputation of closest school,1,Moderate,Good,direction,2529,,,,,2022-06-27 18:01:15,53048
5c7010404a99c6000139851e,ma_choice_v4_rand_real1,5c7010404a99c6000139851e,0,Closeness to parks,24,,,wad_att_rating,2256,,,,,2022-06-27 18:01:15,53049
5f2150b3319efd2d619a356b,ma_choice_v4_rand_real1,5f2150b3319efd2d619a356b,1,Reputation of closest school,1,Good,Very Good,direction,2535,,,,,2022-06-27 18:01:17,53051
5c7010404a99c6000139851e,ma_choice_v4_rand_real1,5c7010404a99c6000139851e,2,Reputation of closest school,12,,,wad_att_rating,2433,,,,,2022-06-27 18:01:17,53052
5f2150b3319efd2d619a356b,ma_choice_v4_rand_real1,5f2150b3319efd2d619a356b,2,Year building was built,1,1950,2020,direction,1273,,,,,2022-06-27 18:01:19,53054
5c7010404a99c6000139851e,ma_choice_v4_rand_real1,5c7010404a99c6000139851e,4,Size of yard,86,,,wad_att_rating,2101,,,,,2022-06-27 18:01:20,53055
5f2150b3319efd2d619a356b,ma_choice_v4_rand_real1,5f2150b3319efd2d619a356b,2,Year building was built,1,1950,1968,direction,1154,,,,,2022-06-27 18:01:21,53056
5c7010404a99c6000139851e,ma_choice_v4_rand_real1,5c7010404a99c6000139851e,6,Quality of heat/AC system,74,,,wad_att_rating,2029,,,,,2022-06-27 18:01:22,53057
5f2150b3319efd2d619a356b,ma_choice_v4_rand_real1,5f2150b3319efd2d619a356b,2,Year building was built,1,1968,1985,direction,1196,,,,,2022-06-27 18:01:22,53058
5f2150b3319efd2d619a356b,ma_choice_v4_rand_real1,5f2150b3319efd2d619a356b,2,Year building was built,1,1985,2003,direction,1441,,,,,2022-06-27 18:01:23,53060
5c7010404a99c6000139851e,ma_choice_v4_rand_real1,5c7010404a99c6000139851e,1,Noise pollution,62,,,wad_att_rating,2151,,,,,2022-06-27 18:01:24,53061
5f2150b3319efd2d619a356b,ma_choice_v4_rand_real1,5f2150b3319efd2d619a356b,2,Year building was built,1,2003,2020,direction,1269,,,,,2022-06-27 18:01:25,53062
5c7010404a99c6000139851e,ma_choice_v4_rand_real1,5c7010404a99c6000139851e,8,Size of home,100,,,wad_att_rating,2358,,,,,2022-06-27 18:01:26,53064
5f2150b3319efd2d619a356b,ma_choice_v4_rand_real1,5f2150b3319efd2d619a356b,3,Quality of kitchen,1,Very Bad,Very Good,direction,1274,,,,,2022-06-27 18:01:26,53065
5f2150b3319efd2d619a356b,ma_choice_v4_rand_real1,5f2150b3319efd2d619a356b,3,Quality of kitchen,1,Very Bad,Bad,direction,1267,,,,,2022-06-27 18:01:28,53067
5c7010404a99c6000139851e,ma_choice_v4_rand_real1,5c7010404a99c6000139851e,7,Amount of traffic,62,,,wad_att_rating,2414,,,,,2022-06-27 18:01:28,53068
5f2150b3319efd2d619a356b,ma_choice_v4_rand_real1,5f2150b3319efd2d619a356b,3,Quality of kitchen,1,Bad,Moderate,direction,1343,,,,,2022-06-27 18:01:29,53069
5f2150b3319efd2d619a356b,ma_choice_v4_rand_real1,5f2150b3319efd2d619a356b,3,Quality of kitchen,1,Moderate,Good,direction,1123,,,,,2022-06-27 18:01:30,53070
5f2150b3319efd2d619a356b,ma_choice_v4_rand_real1,5f2150b3319efd2d619a356b,3,Quality of kitchen,1,Good,Very Good,direction,943,,,,,2022-06-27 18:01:31,53071
5f2150b3319efd2d619a356b,ma_choice_v4_rand_real1,5f2150b3319efd2d619a356b,4,Closeness to parks,0,10 min away,30 min away,direction,1951,,,,,2022-06-27 18:01:34,53073
5f2150b3319efd2d619a356b,ma_choice_v4_rand_real1,5f2150b3319efd2d619a356b,4,Closeness to parks,0,10 min away,15 min away,direction,1832,,,,,2022-06-27 18:01:35,53074
5f2150b3319efd2d619a356b,ma_choice_v4_rand_real1,5f2150b3319efd2d619a356b,4,Closeness to parks,0,15 min away,20 min away,direction,1427,,,,,2022-06-27 18:01:37,53076
5f2150b3319efd2d619a356b,ma_choice_v4_rand_real1,5f2150b3319efd2d619a356b,4,Closeness to parks,0,20 min away,25 min away,direction,1443,,,,,2022-06-27 18:01:38,53077
5f2150b3319efd2d619a356b,ma_choice_v4_rand_real1,5f2150b3319efd2d619a356b,4,Closeness to parks,0,25 min away,30 min away,direction,1748,,,,,2022-06-27 18:01:40,53078
5f2150b3319efd2d619a356b,ma_choice_v4_rand_real1,5f2150b3319efd2d619a356b,5,Size of home,1,600 square feet,1800 square feet,direction,1408,,,,,2022-06-27 18:01:42,53080
5f2150b3319efd2d619a356b,ma_choice_v4_rand_real1,5f2150b3319efd2d619a356b,5,Size of home,1,600 square feet,900 square feet,direction,1810,,,,,2022-06-27 18:01:44,53081
5f2150b3319efd2d619a356b,ma_choice_v4_rand_real1,5f2150b3319efd2d619a356b,5,Size of home,1,900 square feet,1200 square feet,direction,1032,,,,,2022-06-27 18:01:45,53083
5f2150b3319efd2d619a356b,ma_choice_v4_rand_real1,5f2150b3319efd2d619a356b,5,Size of home,1,1200 square feet,1500 square feet,direction,1269,,,,,2022-06-27 18:01:46,53084
5f2150b3319efd2d619a356b,ma_choice_v4_rand_real1,5f2150b3319efd2d619a356b,5,Size of home,1,1500 square feet,1800 square feet,direction,1891,,,,,2022-06-27 18:01:48,53086
5f2150b3319efd2d619a356b,ma_choice_v4_rand_real1,5f2150b3319efd2d619a356b,6,Noise pollution,0,Very Low,Very High,direction,1999,,,,,2022-06-27 18:01:51,53088
5f2150b3319efd2d619a356b,ma_choice_v4_rand_real1,5f2150b3319efd2d619a356b,6,Noise pollution,0,Very Low,Low,direction,1973,,,,,2022-06-27 18:01:53,53089
5f2150b3319efd2d619a356b,ma_choice_v4_rand_real1,5f2150b3319efd2d619a356b,6,Noise pollution,0,Low,Moderate,direction,992,,,,,2022-06-27 18:01:54,53090
5f2150b3319efd2d619a356b,ma_choice_v4_rand_real1,5f2150b3319efd2d619a356b,6,Noise pollution,0,Moderate,High,direction,977,,,,,2022-06-27 18:01:55,53091
5f2150b3319efd2d619a356b,ma_choice_v4_rand_real1,5f2150b3319efd2d619a356b,6,Noise pollution,0,High,Very High,direction,1209,,,,,2022-06-27 18:01:56,53092
5f2150b3319efd2d619a356b,ma_choice_v4_rand_real1,5f2150b3319efd2d619a356b,7,Quality of heat/AC system,1,Very Bad,Very Good,direction,1125,,,,,2022-06-27 18:01:58,53093
5f2150b3319efd2d619a356b,ma_choice_v4_rand_real1,5f2150b3319efd2d619a356b,7,Quality of heat/AC system,1,Very Bad,Bad,direction,1334,,,,,2022-06-27 18:01:59,53094
5f2150b3319efd2d619a356b,ma_choice_v4_rand_real1,5f2150b3319efd2d619a356b,7,Quality of heat/AC system,1,Bad,Moderate,direction,871,,,,,2022-06-27 18:02:00,53095
5f2150b3319efd2d619a356b,ma_choice_v4_rand_real1,5f2150b3319efd2d619a356b,7,Quality of heat/AC system,1,Moderate,Good,direction,826,,,,,2022-06-27 18:02:01,53096
5f2150b3319efd2d619a356b,ma_choice_v4_rand_real1,5f2150b3319efd2d619a356b,7,Quality of heat/AC system,1,Good,Very Good,direction,925,,,,,2022-06-27 18:02:02,53097
5f2150b3319efd2d619a356b,ma_choice_v4_rand_real1,5f2150b3319efd2d619a356b,8,Amount of traffic,0,Very Little,A Lot,direction,1634,,,,,2022-06-27 18:02:04,53098
5f2150b3319efd2d619a356b,ma_choice_v4_rand_real1,5f2150b3319efd2d619a356b,8,Amount of traffic,0,Very Little,A Little,direction,687,,,,,2022-06-27 18:02:05,53099
5f2150b3319efd2d619a356b,ma_choice_v4_rand_real1,5f2150b3319efd2d619a356b,8,Amount of traffic,0,A Little,A Moderate Amount,direction,987,,,,,2022-06-27 18:02:06,53100
5f2150b3319efd2d619a356b,ma_choice_v4_rand_real1,5f2150b3319efd2d619a356b,8,Amount of traffic,0,A Moderate Amount,A Lot,direction,1052,,,,,2022-06-27 18:02:07,53101
5c7010404a99c6000139851e,ma_choice_v4_rand_real1,5c7010404a99c6000139851e,0,Size of home,1,600 square feet,1800 square feet,direction,8704,,,,,2022-06-27 18:07:52,53147
5c7010404a99c6000139851e,ma_choice_v4_rand_real1,5c7010404a99c6000139851e,0,Size of home,1,600 square feet,900 square feet,direction,5294,,,,,2022-06-27 18:07:57,53149
5c7010404a99c6000139851e,ma_choice_v4_rand_real1,5c7010404a99c6000139851e,0,Size of home,1,900 square feet,1200 square feet,direction,2419,,,,,2022-06-27 18:08:00,53150
5c7010404a99c6000139851e,ma_choice_v4_rand_real1,5c7010404a99c6000139851e,0,Size of home,1,1200 square feet,1500 square feet,direction,2045,,,,,2022-06-27 18:08:02,53153
5c7010404a99c6000139851e,ma_choice_v4_rand_real1,5c7010404a99c6000139851e,0,Size of home,1,1500 square feet,1800 square feet,direction,2165,,,,,2022-06-27 18:08:04,53155
5c7010404a99c6000139851e,ma_choice_v4_rand_real1,5c7010404a99c6000139851e,1,Quality of heat/AC system,1,Very Bad,Very Good,direction,5842,,,,,2022-06-27 18:08:11,53158
5c7010404a99c6000139851e,ma_choice_v4_rand_real1,5c7010404a99c6000139851e,1,Quality of heat/AC system,1,Very Bad,Bad,direction,3768,,,,,2022-06-27 18:08:15,53162
5c7010404a99c6000139851e,ma_choice_v4_rand_real1,5c7010404a99c6000139851e,1,Quality of heat/AC system,1,Bad,Moderate,direction,1661,,,,,2022-06-27 18:08:17,53164
5c7010404a99c6000139851e,ma_choice_v4_rand_real1,5c7010404a99c6000139851e,1,Quality of heat/AC system,1,Moderate,Good,direction,2813,,,,,2022-06-27 18:08:20,53166
5c7010404a99c6000139851e,ma_choice_v4_rand_real1,5c7010404a99c6000139851e,1,Quality of heat/AC system,1,Good,Very Good,direction,2921,,,,,2022-06-27 18:08:22,53168
5c7010404a99c6000139851e,ma_choice_v4_rand_real1,5c7010404a99c6000139851e,2,Noise pollution,0,Very Low,Very High,direction,2972,,,,,2022-06-27 18:08:27,53171
5c7010404a99c6000139851e,ma_choice_v4_rand_real1,5c7010404a99c6000139851e,2,Noise pollution,0,Very Low,Low,direction,2005,,,,,2022-06-27 18:08:29,53173
5c7010404a99c6000139851e,ma_choice_v4_rand_real1,5c7010404a99c6000139851e,2,Noise pollution,0,Low,Moderate,direction,2541,,,,,2022-06-27 18:08:31,53175
5c7010404a99c6000139851e,ma_choice_v4_rand_real1,5c7010404a99c6000139851e,2,Noise pollution,0,Moderate,High,direction,8125,,,,,2022-06-27 18:08:39,53179
5c7010404a99c6000139851e,ma_choice_v4_rand_real1,5c7010404a99c6000139851e,2,Noise pollution,0,High,Very High,direction,2949,,,,,2022-06-27 18:08:42,53182
5c7010404a99c6000139851e,ma_choice_v4_rand_real1,5c7010404a99c6000139851e,3,Amount of traffic,0,Very Little,A Lot,direction,1627,,,,,2022-06-27 18:08:45,53183
5c7010404a99c6000139851e,ma_choice_v4_rand_real1,5c7010404a99c6000139851e,3,Amount of traffic,0,Very Little,A Little,direction,2357,,,,,2022-06-27 18:08:48,53186
5c7010404a99c6000139851e,ma_choice_v4_rand_real1,5c7010404a99c6000139851e,3,Amount of traffic,0,A Little,A Moderate Amount,direction,2815,,,,,2022-06-27 18:08:50,53188
5c7010404a99c6000139851e,ma_choice_v4_rand_real1,5c7010404a99c6000139851e,3,Amount of traffic,0,A Moderate Amount,A Lot,direction,1593,,,,,2022-06-27 18:08:52,53189
5c7010404a99c6000139851e,ma_choice_v4_rand_real1,5c7010404a99c6000139851e,4,Reputation of closest school,1,Very Bad,Very Good,direction,3461,,,,,2022-06-27 18:08:56,53197
5c7010404a99c6000139851e,ma_choice_v4_rand_real1,5c7010404a99c6000139851e,4,Reputation of closest school,1,Very Bad,Bad,direction,3337,,,,,2022-06-27 18:09:00,53200
5c7010404a99c6000139851e,ma_choice_v4_rand_real1,5c7010404a99c6000139851e,4,Reputation of closest school,1,Bad,Moderate,direction,1716,,,,,2022-06-27 18:09:02,53202
5c7010404a99c6000139851e,ma_choice_v4_rand_real1,5c7010404a99c6000139851e,4,Reputation of closest school,1,Moderate,Good,direction,1622,,,,,2022-06-27 18:09:03,53205
5c7010404a99c6000139851e,ma_choice_v4_rand_real1,5c7010404a99c6000139851e,4,Reputation of closest school,1,Good,Very Good,direction,1113,,,,,2022-06-27 18:09:04,53206
5c7010404a99c6000139851e,ma_choice_v4_rand_real1,5c7010404a99c6000139851e,5,Quality of kitchen,1,Very Bad,Very Good,direction,1868,,,,,2022-06-27 18:09:07,53208
5c7010404a99c6000139851e,ma_choice_v4_rand_real1,5c7010404a99c6000139851e,5,Quality of kitchen,1,Very Bad,Bad,direction,3687,,,,,2022-06-27 18:09:11,53212
5c7010404a99c6000139851e,ma_choice_v4_rand_real1,5c7010404a99c6000139851e,5,Quality of kitchen,1,Bad,Moderate,direction,1401,,,,,2022-06-27 18:09:12,53216
5c7010404a99c6000139851e,ma_choice_v4_rand_real1,5c7010404a99c6000139851e,5,Quality of kitchen,1,Moderate,Good,direction,2017,,,,,2022-06-27 18:09:14,53218
5c7010404a99c6000139851e,ma_choice_v4_rand_real1,5c7010404a99c6000139851e,5,Quality of kitchen,1,Good,Very Good,direction,1294,,,,,2022-06-27 18:09:16,53221
5c7010404a99c6000139851e,ma_choice_v4_rand_real1,5c7010404a99c6000139851e,6,Size of yard,1,0 square feet,600 square feet,direction,2010,,,,,2022-06-27 18:09:19,53226
5c7010404a99c6000139851e,ma_choice_v4_rand_real1,5c7010404a99c6000139851e,6,Size of yard,1,0 square feet,150 square feet,direction,1714,,,,,2022-06-27 18:09:21,53230
5c7010404a99c6000139851e,ma_choice_v4_rand_real1,5c7010404a99c6000139851e,6,Size of yard,1,150 square feet,300 square feet,direction,1575,,,,,2022-06-27 18:09:23,53235
5c7010404a99c6000139851e,ma_choice_v4_rand_real1,5c7010404a99c6000139851e,6,Size of yard,1,300 square feet,450 square feet,direction,1460,,,,,2022-06-27 18:09:24,53241
5c7010404a99c6000139851e,ma_choice_v4_rand_real1,5c7010404a99c6000139851e,6,Size of yard,1,450 square feet,600 square feet,direction,1449,,,,,2022-06-27 18:09:25,53244
5c7010404a99c6000139851e,ma_choice_v4_rand_real1,5c7010404a99c6000139851e,7,Year building was built,1,1950,2020,direction,3085,,,,,2022-06-27 18:09:30,53252
5c7010404a99c6000139851e,ma_choice_v4_rand_real1,5c7010404a99c6000139851e,7,Year building was built,1,1950,1968,direction,1639,,,,,2022-06-27 18:09:31,53256
5c7010404a99c6000139851e,ma_choice_v4_rand_real1,5c7010404a99c6000139851e,7,Year building was built,1,1968,1985,direction,1697,,,,,2022-06-27 18:09:33,53258
5c7010404a99c6000139851e,ma_choice_v4_rand_real1,5c7010404a99c6000139851e,7,Year building was built,1,1985,2003,direction,1857,,,,,2022-06-27 18:09:35,53260
5c7010404a99c6000139851e,ma_choice_v4_rand_real1,5c7010404a99c6000139851e,7,Year building was built,1,2003,2020,direction,1876,,,,,2022-06-27 18:09:37,53261
5c7010404a99c6000139851e,ma_choice_v4_rand_real1,5c7010404a99c6000139851e,8,Closeness to parks,1,10 min away,30 min away,direction,3020,,,,,2022-06-27 18:09:41,53264
5c7010404a99c6000139851e,ma_choice_v4_rand_real1,5c7010404a99c6000139851e,8,Closeness to parks,1,10 min away,15 min away,direction,3546,,,,,2022-06-27 18:09:45,53266
5c7010404a99c6000139851e,ma_choice_v4_rand_real1,5c7010404a99c6000139851e,8,Closeness to parks,1,15 min away,20 min away,direction,3766,,,,,2022-06-27 18:09:48,53267
5c7010404a99c6000139851e,ma_choice_v4_rand_real1,5c7010404a99c6000139851e,8,Closeness to parks,0,20 min away,25 min away,direction,1487,,,,,2022-06-27 18:09:50,53268
5c7010404a99c6000139851e,ma_choice_v4_rand_real1,5c7010404a99c6000139851e,8,Closeness to parks,0,25 min away,30 min away,direction,1810,,,,,2022-06-27 18:09:52,53269
5e76c87c0fd39b22d52eba04,ma_choice_v4_rand_real1,5e76c87c0fd39b22d52eba04,0,Quality of heat/AC system,1,,,lex_att_rating,10267,,,,,2022-06-27 18:17:04,53394
5dd365bdaf16d337333e212e,ma_choice_v4_rand_real1,5dd365bdaf16d337333e212e,0,Year building was built,1,,,ew_att_rating,11749,,,,,2022-06-27 18:17:38,53399
5dd365bdaf16d337333e212e,ma_choice_v4_rand_real1,5dd365bdaf16d337333e212e,0,Quality of kitchen,1,,,ew_att_rating,11749,,,,,2022-06-27 18:17:38,53400
5dd365bdaf16d337333e212e,ma_choice_v4_rand_real1,5dd365bdaf16d337333e212e,0,Quality of heat/AC system,1,,,ew_att_rating,11749,,,,,2022-06-27 18:17:38,53401
5dd365bdaf16d337333e212e,ma_choice_v4_rand_real1,5dd365bdaf16d337333e212e,0,Size of home,1,,,ew_att_rating,11749,,,,,2022-06-27 18:17:38,53402
5dd365bdaf16d337333e212e,ma_choice_v4_rand_real1,5dd365bdaf16d337333e212e,0,Size of yard,1,,,ew_att_rating,11749,,,,,2022-06-27 18:17:38,53403
5e76c87c0fd39b22d52eba04,ma_choice_v4_rand_real1,5e76c87c0fd39b22d52eba04,2,Reputation of closest school,12,,,wad_att_rating,13046,,,,,2022-06-27 18:17:40,53404
5e76c87c0fd39b22d52eba04,ma_choice_v4_rand_real1,5e76c87c0fd39b22d52eba04,4,Size of yard,24,,,wad_att_rating,9983,,,,,2022-06-27 18:17:50,53405
5e76c87c0fd39b22d52eba04,ma_choice_v4_rand_real1,5e76c87c0fd39b22d52eba04,6,Quality of heat/AC system,87,,,wad_att_rating,9645,,,,,2022-06-27 18:17:59,53406
5e76c87c0fd39b22d52eba04,ma_choice_v4_rand_real1,5e76c87c0fd39b22d52eba04,3,Year building was built,13,,,wad_att_rating,8493,,,,,2022-06-27 18:18:08,53407
5e76c87c0fd39b22d52eba04,ma_choice_v4_rand_real1,5e76c87c0fd39b22d52eba04,8,Size of home,12,,,wad_att_rating,5053,,,,,2022-06-27 18:18:15,53408
5dd365bdaf16d337333e212e,ma_choice_v4_rand_real1,5dd365bdaf16d337333e212e,0,Size of home,1,,,lex_att_rating,28784,,,,,2022-06-27 18:18:15,53409
5e76c87c0fd39b22d52eba04,ma_choice_v4_rand_real1,5e76c87c0fd39b22d52eba04,7,Amount of traffic,0,,,wad_att_rating,6459,,,,,2022-06-27 18:18:20,53410
5e76c87c0fd39b22d52eba04,ma_choice_v4_rand_real1,5e76c87c0fd39b22d52eba04,5,Quality of kitchen,84,,,wad_att_rating,7391,,,,,2022-06-27 18:18:27,53411
5dd365bdaf16d337333e212e,ma_choice_v4_rand_real1,5dd365bdaf16d337333e212e,8,Size of home,64,,,wad_att_rating,6252,,,,,2022-06-27 18:18:28,53412
5dd365bdaf16d337333e212e,ma_choice_v4_rand_real1,5dd365bdaf16d337333e212e,3,Year building was built,58,,,wad_att_rating,6673,,,,,2022-06-27 18:18:35,53413
5e76c87c0fd39b22d52eba04,ma_choice_v4_rand_real1,5e76c87c0fd39b22d52eba04,0,Closeness to parks,49,,,wad_att_rating,8754,,,,,2022-06-27 18:18:35,53414
5dd365bdaf16d337333e212e,ma_choice_v4_rand_real1,5dd365bdaf16d337333e212e,2,Reputation of closest school,0,,,wad_att_rating,4024,,,,,2022-06-27 18:18:39,53415
5dd365bdaf16d337333e212e,ma_choice_v4_rand_real1,5dd365bdaf16d337333e212e,0,Closeness to parks,0,,,wad_att_rating,3886,,,,,2022-06-27 18:18:43,53416
5e76c87c0fd39b22d52eba04,ma_choice_v4_rand_real1,5e76c87c0fd39b22d52eba04,1,Noise pollution,26,,,wad_att_rating,8209,,,,,2022-06-27 18:18:44,53417
5dd365bdaf16d337333e212e,ma_choice_v4_rand_real1,5dd365bdaf16d337333e212e,4,Size of yard,41,,,wad_att_rating,4254,,,,,2022-06-27 18:18:47,53418
5dd365bdaf16d337333e212e,ma_choice_v4_rand_real1,5dd365bdaf16d337333e212e,1,Noise pollution,0,,,wad_att_rating,2018,,,,,2022-06-27 18:18:49,53419
5dd365bdaf16d337333e212e,ma_choice_v4_rand_real1,5dd365bdaf16d337333e212e,7,Amount of traffic,0,,,wad_att_rating,2317,,,,,2022-06-27 18:18:52,53420
5dd365bdaf16d337333e212e,ma_choice_v4_rand_real1,5dd365bdaf16d337333e212e,6,Quality of heat/AC system,40,,,wad_att_rating,3494,,,,,2022-06-27 18:18:55,53421
5dd365bdaf16d337333e212e,ma_choice_v4_rand_real1,5dd365bdaf16d337333e212e,5,Quality of kitchen,34,,,wad_att_rating,5622,,,,,2022-06-27 18:19:01,53422
5dd365bdaf16d337333e212e,ma_choice_v4_rand_real1,5dd365bdaf16d337333e212e,0,Quality of kitchen,1,Very Bad,Very Good,direction,12375,,,,,2022-06-27 18:19:40,53423
5dd365bdaf16d337333e212e,ma_choice_v4_rand_real1,5dd365bdaf16d337333e212e,0,Quality of kitchen,1,Very Bad,Bad,direction,6850,,,,,2022-06-27 18:19:47,53424
5dd365bdaf16d337333e212e,ma_choice_v4_rand_real1,5dd365bdaf16d337333e212e,0,Quality of kitchen,1,Bad,Moderate,direction,3608,,,,,2022-06-27 18:19:51,53425
5e76c87c0fd39b22d52eba04,ma_choice_v4_rand_real1,5e76c87c0fd39b22d52eba04,0,Quality of heat/AC system,1,,,ew_att_rating,46662,,,,,2022-06-27 18:19:56,53426
5e76c87c0fd39b22d52eba04,ma_choice_v4_rand_real1,5e76c87c0fd39b22d52eba04,0,Amount of traffic,1,,,ew_att_rating,46662,,,,,2022-06-27 18:19:56,53427
5e76c87c0fd39b22d52eba04,ma_choice_v4_rand_real1,5e76c87c0fd39b22d52eba04,0,Quality of kitchen,1,,,ew_att_rating,46662,,,,,2022-06-27 18:19:56,53428
5e76c87c0fd39b22d52eba04,ma_choice_v4_rand_real1,5e76c87c0fd39b22d52eba04,0,Noise pollution,1,,,ew_att_rating,46662,,,,,2022-06-27 18:19:56,53429
5e76c87c0fd39b22d52eba04,ma_choice_v4_rand_real1,5e76c87c0fd39b22d52eba04,0,Closeness to parks,1,,,ew_att_rating,46662,,,,,2022-06-27 18:19:56,53430
5e76c87c0fd39b22d52eba04,ma_choice_v4_rand_real1,5e76c87c0fd39b22d52eba04,0,Size of home,1,,,ew_att_rating,46662,,,,,2022-06-27 18:19:56,53431
5dd365bdaf16d337333e212e,ma_choice_v4_rand_real1,5dd365bdaf16d337333e212e,0,Quality of kitchen,1,Moderate,Good,direction,4957,,,,,2022-06-27 18:19:56,53432
5dd365bdaf16d337333e212e,ma_choice_v4_rand_real1,5dd365bdaf16d337333e212e,0,Quality of kitchen,1,Good,Very Good,direction,3173,,,,,2022-06-27 18:19:59,53433
5dd365bdaf16d337333e212e,ma_choice_v4_rand_real1,5dd365bdaf16d337333e212e,1,Amount of traffic,0,Very Little,A Lot,direction,11954,,,,,2022-06-27 18:20:13,53434
610272b792467ffae049b859,ma_choice_v4_rand_real1,610272b792467ffae049b859,0,Quality of kitchen,1,,,ew_att_rating,8525,,,,,2022-06-27 18:20:13,53435
610272b792467ffae049b859,ma_choice_v4_rand_real1,610272b792467ffae049b859,0,Quality of heat/AC system,1,,,ew_att_rating,8525,,,,,2022-06-27 18:20:13,53436
5dd365bdaf16d337333e212e,ma_choice_v4_rand_real1,5dd365bdaf16d337333e212e,1,Amount of traffic,0,Very Little,A Little,direction,3138,,,,,2022-06-27 18:20:16,53437
5dd365bdaf16d337333e212e,ma_choice_v4_rand_real1,5dd365bdaf16d337333e212e,1,Amount of traffic,0,A Little,A Moderate Amount,direction,3449,,,,,2022-06-27 18:20:19,53438
5dd365bdaf16d337333e212e,ma_choice_v4_rand_real1,5dd365bdaf16d337333e212e,1,Amount of traffic,0,A Moderate Amount,A Lot,direction,3631,,,,,2022-06-27 18:20:23,53439
5dd365bdaf16d337333e212e,ma_choice_v4_rand_real1,5dd365bdaf16d337333e212e,2,Quality of heat/AC system,1,Very Bad,Very Good,direction,2229,,,,,2022-06-27 18:20:27,53440
610272b792467ffae049b859,ma_choice_v4_rand_real1,610272b792467ffae049b859,0,Quality of kitchen,1,,,lex_att_rating,2063,,,,,2022-06-27 18:20:27,53441
615327ab3d238b032366a545,ma_choice_v4_rand_real1,615327ab3d238b032366a545,5,Quality of kitchen,61,,,wad_att_rating,3348,,,,,2022-06-27 18:20:27,53442
5dd365bdaf16d337333e212e,ma_choice_v4_rand_real1,5dd365bdaf16d337333e212e,2,Quality of heat/AC system,1,Very Bad,Bad,direction,4529,,,,,2022-06-27 18:20:31,53443
615327ab3d238b032366a545,ma_choice_v4_rand_real1,615327ab3d238b032366a545,8,Size of home,24,,,wad_att_rating,4755,,,,,2022-06-27 18:20:32,53444
5dd365bdaf16d337333e212e,ma_choice_v4_rand_real1,5dd365bdaf16d337333e212e,2,Quality of heat/AC system,1,Bad,Moderate,direction,1811,,,,,2022-06-27 18:20:33,53445
615327ab3d238b032366a545,ma_choice_v4_rand_real1,615327ab3d238b032366a545,7,Amount of traffic,11,,,wad_att_rating,2804,,,,,2022-06-27 18:20:35,53446
5dd365bdaf16d337333e212e,ma_choice_v4_rand_real1,5dd365bdaf16d337333e212e,2,Quality of heat/AC system,1,Moderate,Good,direction,2668,,,,,2022-06-27 18:20:36,53447
610272b792467ffae049b859,ma_choice_v4_rand_real1,610272b792467ffae049b859,4,Size of yard,26,,,wad_att_rating,4398,,,,,2022-06-27 18:20:37,53448
5dd365bdaf16d337333e212e,ma_choice_v4_rand_real1,5dd365bdaf16d337333e212e,2,Quality of heat/AC system,1,Good,Very Good,direction,1921,,,,,2022-06-27 18:20:38,53449
615327ab3d238b032366a545,ma_choice_v4_rand_real1,615327ab3d238b032366a545,0,Closeness to parks,0,,,wad_att_rating,3076,,,,,2022-06-27 18:20:38,53450
610272b792467ffae049b859,ma_choice_v4_rand_real1,610272b792467ffae049b859,2,Reputation of closest school,0,,,wad_att_rating,2861,,,,,2022-06-27 18:20:40,53451
615327ab3d238b032366a545,ma_choice_v4_rand_real1,615327ab3d238b032366a545,3,Year building was built,13,,,wad_att_rating,4290,,,,,2022-06-27 18:20:42,53452
5dd365bdaf16d337333e212e,ma_choice_v4_rand_real1,5dd365bdaf16d337333e212e,3,Size of home,1,600 square feet,1800 square feet,direction,3581,,,,,2022-06-27 18:20:42,53453
5dd365bdaf16d337333e212e,ma_choice_v4_rand_real1,5dd365bdaf16d337333e212e,3,Size of home,1,600 square feet,900 square feet,direction,1550,,,,,2022-06-27 18:20:44,53454
610272b792467ffae049b859,ma_choice_v4_rand_real1,610272b792467ffae049b859,0,Closeness to parks,25,,,wad_att_rating,4637,,,,,2022-06-27 18:20:44,53455
5dd365bdaf16d337333e212e,ma_choice_v4_rand_real1,5dd365bdaf16d337333e212e,3,Size of home,1,900 square feet,1200 square feet,direction,1776,,,,,2022-06-27 18:20:46,53456
5dd365bdaf16d337333e212e,ma_choice_v4_rand_real1,5dd365bdaf16d337333e212e,3,Size of home,1,1200 square feet,1500 square feet,direction,1429,,,,,2022-06-27 18:20:47,53457
610272b792467ffae049b859,ma_choice_v4_rand_real1,610272b792467ffae049b859,6,Quality of heat/AC system,87,,,wad_att_rating,3790,,,,,2022-06-27 18:20:48,53458
5dd365bdaf16d337333e212e,ma_choice_v4_rand_real1,5dd365bdaf16d337333e212e,3,Size of home,1,1500 square feet,1800 square feet,direction,2030,,,,,2022-06-27 18:20:49,53459
610272b792467ffae049b859,ma_choice_v4_rand_real1,610272b792467ffae049b859,7,Amount of traffic,0,,,wad_att_rating,2845,,,,,2022-06-27 18:20:51,53460
5dd365bdaf16d337333e212e,ma_choice_v4_rand_real1,5dd365bdaf16d337333e212e,4,Reputation of closest school,1,Very Bad,Very Good,direction,1559,,,,,2022-06-27 18:20:52,53461
610272b792467ffae049b859,ma_choice_v4_rand_real1,610272b792467ffae049b859,3,Year building was built,0,,,wad_att_rating,1165,,,,,2022-06-27 18:20:52,53462
5dd365bdaf16d337333e212e,ma_choice_v4_rand_real1,5dd365bdaf16d337333e212e,4,Reputation of closest school,1,Very Bad,Bad,direction,1372,,,,,2022-06-27 18:20:53,53463
5dd365bdaf16d337333e212e,ma_choice_v4_rand_real1,5dd365bdaf16d337333e212e,4,Reputation of closest school,1,Bad,Moderate,direction,1434,,,,,2022-06-27 18:20:55,53464
5dd365bdaf16d337333e212e,ma_choice_v4_rand_real1,5dd365bdaf16d337333e212e,4,Reputation of closest school,1,Moderate,Good,direction,1444,,,,,2022-06-27 18:20:56,53466
610272b792467ffae049b859,ma_choice_v4_rand_real1,610272b792467ffae049b859,1,Noise pollution,12,,,wad_att_rating,5085,,,,,2022-06-27 18:20:57,53467
5dd365bdaf16d337333e212e,ma_choice_v4_rand_real1,5dd365bdaf16d337333e212e,4,Reputation of closest school,1,Good,Very Good,direction,1457,,,,,2022-06-27 18:20:58,53468
615327ab3d238b032366a545,ma_choice_v4_rand_real1,615327ab3d238b032366a545,6,Quality of heat/AC system,37,,,wad_att_rating,17509,,,,,2022-06-27 18:21:00,53469
5dd365bdaf16d337333e212e,ma_choice_v4_rand_real1,5dd365bdaf16d337333e212e,5,Size of yard,1,0 square feet,600 square feet,direction,1348,,,,,2022-06-27 18:21:00,53470
610272b792467ffae049b859,ma_choice_v4_rand_real1,610272b792467ffae049b859,5,Quality of kitchen,100,,,wad_att_rating,2870,,,,,2022-06-27 18:21:00,53471
5dd365bdaf16d337333e212e,ma_choice_v4_rand_real1,5dd365bdaf16d337333e212e,5,Size of yard,1,0 square feet,150 square feet,direction,1407,,,,,2022-06-27 18:21:01,53472
5dd365bdaf16d337333e212e,ma_choice_v4_rand_real1,5dd365bdaf16d337333e212e,5,Size of yard,1,150 square feet,300 square feet,direction,1357,,,,,2022-06-27 18:21:03,53473
615327ab3d238b032366a545,ma_choice_v4_rand_real1,615327ab3d238b032366a545,1,Noise pollution,24,,,wad_att_rating,3807,,,,,2022-06-27 18:21:04,53474
5dd365bdaf16d337333e212e,ma_choice_v4_rand_real1,5dd365bdaf16d337333e212e,5,Size of yard,1,300 square feet,450 square feet,direction,1217,,,,,2022-06-27 18:21:04,53475
610272b792467ffae049b859,ma_choice_v4_rand_real1,610272b792467ffae049b859,8,Size of home,37,,,wad_att_rating,3974,,,,,2022-06-27 18:21:04,53476
5dd365bdaf16d337333e212e,ma_choice_v4_rand_real1,5dd365bdaf16d337333e212e,5,Size of yard,1,450 square feet,600 square feet,direction,1275,,,,,2022-06-27 18:21:05,53477
615327ab3d238b032366a545,ma_choice_v4_rand_real1,615327ab3d238b032366a545,2,Reputation of closest school,87,,,wad_att_rating,2795,,,,,2022-06-27 18:21:06,53478
5dd365bdaf16d337333e212e,ma_choice_v4_rand_real1,5dd365bdaf16d337333e212e,6,Year building was built,1,1950,2020,direction,1862,,,,,2022-06-27 18:21:08,53479
615327ab3d238b032366a545,ma_choice_v4_rand_real1,615327ab3d238b032366a545,4,Size of yard,24,,,wad_att_rating,3505,,,,,2022-06-27 18:21:10,53480
5dd365bdaf16d337333e212e,ma_choice_v4_rand_real1,5dd365bdaf16d337333e212e,6,Year building was built,1,1950,1968,direction,1902,,,,,2022-06-27 18:21:10,53481
5dd365bdaf16d337333e212e,ma_choice_v4_rand_real1,5dd365bdaf16d337333e212e,6,Year building was built,1,1968,1985,direction,1470,,,,,2022-06-27 18:21:12,53482
5dd365bdaf16d337333e212e,ma_choice_v4_rand_real1,5dd365bdaf16d337333e212e,6,Year building was built,1,1985,2003,direction,1469,,,,,2022-06-27 18:21:13,53484
5dd365bdaf16d337333e212e,ma_choice_v4_rand_real1,5dd365bdaf16d337333e212e,6,Year building was built,1,2003,2020,direction,1449,,,,,2022-06-27 18:21:15,53485
5dd365bdaf16d337333e212e,ma_choice_v4_rand_real1,5dd365bdaf16d337333e212e,7,Closeness to parks,0,10 min away,30 min away,direction,2197,,,,,2022-06-27 18:21:18,53486
5dd365bdaf16d337333e212e,ma_choice_v4_rand_real1,5dd365bdaf16d337333e212e,7,Closeness to parks,0,10 min away,15 min away,direction,2319,,,,,2022-06-27 18:21:20,53487
5dd365bdaf16d337333e212e,ma_choice_v4_rand_real1,5dd365bdaf16d337333e212e,7,Closeness to parks,0,15 min away,20 min away,direction,1723,,,,,2022-06-27 18:21:25,53489
5dd365bdaf16d337333e212e,ma_choice_v4_rand_real1,5dd365bdaf16d337333e212e,7,Closeness to parks,0,20 min away,25 min away,direction,3407,,,,,2022-06-27 18:21:26,53490
5dd365bdaf16d337333e212e,ma_choice_v4_rand_real1,5dd365bdaf16d337333e212e,7,Closeness to parks,0,25 min away,30 min away,direction,2466,,,,,2022-06-27 18:21:28,53491
615327ab3d238b032366a545,ma_choice_v4_rand_real1,615327ab3d238b032366a545,0,Reputation of closest school,1,,,ew_att_rating,13038,,,,,2022-06-27 18:21:30,53493
615327ab3d238b032366a545,ma_choice_v4_rand_real1,615327ab3d238b032366a545,0,Quality of kitchen,1,,,ew_att_rating,13038,,,,,2022-06-27 18:21:30,53494
615327ab3d238b032366a545,ma_choice_v4_rand_real1,615327ab3d238b032366a545,0,Size of home,1,,,ew_att_rating,13038,,,,,2022-06-27 18:21:30,53495
5dd365bdaf16d337333e212e,ma_choice_v4_rand_real1,5dd365bdaf16d337333e212e,8,Noise pollution,0,Very Low,Very High,direction,2178,,,,,2022-06-27 18:21:31,53496
5dd365bdaf16d337333e212e,ma_choice_v4_rand_real1,5dd365bdaf16d337333e212e,8,Noise pollution,0,Very Low,Low,direction,2129,,,,,2022-06-27 18:21:34,53498
5e76c87c0fd39b22d52eba04,ma_choice_v4_rand_real1,5e76c87c0fd39b22d52eba04,0,Closeness to parks,0,10 min away,30 min away,direction,30109,,,,,2022-06-27 18:21:34,53499
5dd365bdaf16d337333e212e,ma_choice_v4_rand_real1,5dd365bdaf16d337333e212e,8,Noise pollution,0,Low,Moderate,direction,1681,,,,,2022-06-27 18:21:35,53500
5dd365bdaf16d337333e212e,ma_choice_v4_rand_real1,5dd365bdaf16d337333e212e,8,Noise pollution,0,Moderate,High,direction,1546,,,,,2022-06-27 18:21:37,53501
615327ab3d238b032366a545,ma_choice_v4_rand_real1,615327ab3d238b032366a545,0,Reputation of closest school,1,,,lex_att_rating,5092,,,,,2022-06-27 18:21:39,53502
5dd365bdaf16d337333e212e,ma_choice_v4_rand_real1,5dd365bdaf16d337333e212e,8,Noise pollution,0,High,Very High,direction,2656,,,,,2022-06-27 18:21:40,53504
5e76c87c0fd39b22d52eba04,ma_choice_v4_rand_real1,5e76c87c0fd39b22d52eba04,0,Closeness to parks,0,10 min away,15 min away,direction,18563,,,,,2022-06-27 18:21:53,53510
61245769826057b69678987a,ma_choice_v4_rand_real1,61245769826057b69678987a,8,Size of home,93,,,wad_att_rating,6976,,,,,2022-06-27 18:22:07,53521
61245769826057b69678987a,ma_choice_v4_rand_real1,61245769826057b69678987a,0,Closeness to parks,15,,,wad_att_rating,5439,,,,,2022-06-27 18:22:12,53527
5e76c87c0fd39b22d52eba04,ma_choice_v4_rand_real1,5e76c87c0fd39b22d52eba04,0,Closeness to parks,0,15 min away,20 min away,direction,22244,,,,,2022-06-27 18:22:15,53529
61245769826057b69678987a,ma_choice_v4_rand_real1,61245769826057b69678987a,4,Size of yard,90,,,wad_att_rating,5781,,,,,2022-06-27 18:22:18,53535
61245769826057b69678987a,ma_choice_v4_rand_real1,61245769826057b69678987a,3,Year building was built,0,,,wad_att_rating,2451,,,,,2022-06-27 18:22:21,53537
61245769826057b69678987a,ma_choice_v4_rand_real1,61245769826057b69678987a,7,Amount of traffic,47,,,wad_att_rating,6131,,,,,2022-06-27 18:22:27,53544
61245769826057b69678987a,ma_choice_v4_rand_real1,61245769826057b69678987a,5,Quality of kitchen,69,,,wad_att_rating,3872,,,,,2022-06-27 18:22:31,53550
61245769826057b69678987a,ma_choice_v4_rand_real1,61245769826057b69678987a,2,Reputation of closest school,84,,,wad_att_rating,2686,,,,,2022-06-27 18:22:33,53554
5e76c87c0fd39b22d52eba04,ma_choice_v4_rand_real1,5e76c87c0fd39b22d52eba04,0,Closeness to parks,0,20 min away,25 min away,direction,19286,,,,,2022-06-27 18:22:34,53556
61245769826057b69678987a,ma_choice_v4_rand_real1,61245769826057b69678987a,6,Quality of heat/AC system,51,,,wad_att_rating,3059,,,,,2022-06-27 18:22:36,53558
61245769826057b69678987a,ma_choice_v4_rand_real1,61245769826057b69678987a,1,Noise pollution,12,,,wad_att_rating,1822,,,,,2022-06-27 18:22:38,53560
61245769826057b69678987a,ma_choice_v4_rand_real1,61245769826057b69678987a,0,Size of home,1,,,lex_att_rating,6497,,,,,2022-06-27 18:22:49,53562
5e76c87c0fd39b22d52eba04,ma_choice_v4_rand_real1,5e76c87c0fd39b22d52eba04,0,Closeness to parks,0,25 min away,30 min away,direction,15119,,,,,2022-06-27 18:22:49,53563
61245769826057b69678987a,ma_choice_v4_rand_real1,61245769826057b69678987a,0,Size of yard,1,,,ew_att_rating,17091,,,,,2022-06-27 18:23:13,53567
61245769826057b69678987a,ma_choice_v4_rand_real1,61245769826057b69678987a,0,Quality of kitchen,1,,,ew_att_rating,17091,,,,,2022-06-27 18:23:13,53568
61245769826057b69678987a,ma_choice_v4_rand_real1,61245769826057b69678987a,0,Size of home,1,,,ew_att_rating,17091,,,,,2022-06-27 18:23:13,53569
61245769826057b69678987a,ma_choice_v4_rand_real1,61245769826057b69678987a,0,Quality of heat/AC system,1,,,ew_att_rating,17091,,,,,2022-06-27 18:23:13,53570
61245769826057b69678987a,ma_choice_v4_rand_real1,61245769826057b69678987a,0,Reputation of closest school,1,,,ew_att_rating,17091,,,,,2022-06-27 18:23:13,53571
61245769826057b69678987a,ma_choice_v4_rand_real1,61245769826057b69678987a,0,Amount of traffic,1,,,ew_att_rating,17091,,,,,2022-06-27 18:23:13,53572
61245769826057b69678987a,ma_choice_v4_rand_real1,61245769826057b69678987a,0,Closeness to parks,1,,,ew_att_rating,17091,,,,,2022-06-27 18:23:13,53573
5e76c87c0fd39b22d52eba04,ma_choice_v4_rand_real1,5e76c87c0fd39b22d52eba04,1,Year building was built,1,1950,2020,direction,19181,,,,,2022-06-27 18:23:16,53574
5e76c87c0fd39b22d52eba04,ma_choice_v4_rand_real1,5e76c87c0fd39b22d52eba04,1,Year building was built,1,1950,1968,direction,11989,,,,,2022-06-27 18:23:28,53576
60fceb63bd7ca52152c7362c,ma_choice_v4_rand_real1,60fceb63bd7ca52152c7362c,0,Quality of kitchen,1,,,lex_att_rating,7182,,,,,2022-06-27 18:23:41,53580
5e76c87c0fd39b22d52eba04,ma_choice_v4_rand_real1,5e76c87c0fd39b22d52eba04,1,Year building was built,1,1968,1985,direction,20017,,,,,2022-06-27 18:23:48,53581
61245769826057b69678987a,ma_choice_v4_rand_real1,61245769826057b69678987a,0,Reputation of closest school,1,Very Bad,Very Good,direction,10990,,,,,2022-06-27 18:23:52,53583
61245769826057b69678987a,ma_choice_v4_rand_real1,61245769826057b69678987a,0,Reputation of closest school,1,Very Bad,Bad,direction,7962,,,,,2022-06-27 18:24:00,53585
61245769826057b69678987a,ma_choice_v4_rand_real1,61245769826057b69678987a,0,Reputation of closest school,1,Bad,Moderate,direction,3498,,,,,2022-06-27 18:24:03,53586
61245769826057b69678987a,ma_choice_v4_rand_real1,61245769826057b69678987a,0,Reputation of closest school,1,Moderate,Good,direction,3603,,,,,2022-06-27 18:24:07,53588
5e76c87c0fd39b22d52eba04,ma_choice_v4_rand_real1,5e76c87c0fd39b22d52eba04,1,Year building was built,1,1985,2003,direction,19908,,,,,2022-06-27 18:24:08,53589
61245769826057b69678987a,ma_choice_v4_rand_real1,61245769826057b69678987a,0,Reputation of closest school,1,Good,Very Good,direction,2868,,,,,2022-06-27 18:24:10,53590
60fceb63bd7ca52152c7362c,ma_choice_v4_rand_real1,60fceb63bd7ca52152c7362c,0,Size of home,1,,,ew_att_rating,20732,,,,,2022-06-27 18:24:10,53591
60fceb63bd7ca52152c7362c,ma_choice_v4_rand_real1,60fceb63bd7ca52152c7362c,0,Quality of kitchen,1,,,ew_att_rating,20732,,,,,2022-06-27 18:24:10,53592
60fceb63bd7ca52152c7362c,ma_choice_v4_rand_real1,60fceb63bd7ca52152c7362c,0,Quality of heat/AC system,1,,,ew_att_rating,20732,,,,,2022-06-27 18:24:10,53593
61245769826057b69678987a,ma_choice_v4_rand_real1,61245769826057b69678987a,1,Size of yard,1,0 square feet,600 square feet,direction,3147,,,,,2022-06-27 18:24:14,53595
61245769826057b69678987a,ma_choice_v4_rand_real1,61245769826057b69678987a,1,Size of yard,1,0 square feet,150 square feet,direction,2268,,,,,2022-06-27 18:24:17,53596
5e76c87c0fd39b22d52eba04,ma_choice_v4_rand_real1,5e76c87c0fd39b22d52eba04,1,Year building was built,1,2003,2020,direction,9745,,,,,2022-06-27 18:24:18,53598
61245769826057b69678987a,ma_choice_v4_rand_real1,61245769826057b69678987a,1,Size of yard,1,150 square feet,300 square feet,direction,4295,,,,,2022-06-27 18:24:21,53599
60fceb63bd7ca52152c7362c,ma_choice_v4_rand_real1,60fceb63bd7ca52152c7362c,6,Quality of heat/AC system,63,,,wad_att_rating,9598,,,,,2022-06-27 18:24:26,53600
61245769826057b69678987a,ma_choice_v4_rand_real1,61245769826057b69678987a,1,Size of yard,1,300 square feet,450 square feet,direction,2461,,,,,2022-06-27 18:24:26,53601
61245769826057b69678987a,ma_choice_v4_rand_real1,61245769826057b69678987a,1,Size of yard,1,450 square feet,600 square feet,direction,3683,,,,,2022-06-27 18:24:29,53603
60fceb63bd7ca52152c7362c,ma_choice_v4_rand_real1,60fceb63bd7ca52152c7362c,2,Reputation of closest school,0,,,wad_att_rating,5395,,,,,2022-06-27 18:24:30,53604
61245769826057b69678987a,ma_choice_v4_rand_real1,61245769826057b69678987a,2,Size of home,1,600 square feet,1800 square feet,direction,2735,,,,,2022-06-27 18:24:31,53605
61245769826057b69678987a,ma_choice_v4_rand_real1,61245769826057b69678987a,2,Size of home,1,600 square feet,900 square feet,direction,2991,,,,,2022-06-27 18:24:34,53607
60fceb63bd7ca52152c7362c,ma_choice_v4_rand_real1,60fceb63bd7ca52152c7362c,1,Noise pollution,11,,,wad_att_rating,5947,,,,,2022-06-27 18:24:35,53608
61245769826057b69678987a,ma_choice_v4_rand_real1,61245769826057b69678987a,2,Size of home,1,900 square feet,1200 square feet,direction,1796,,,,,2022-06-27 18:24:35,53609
5e76c87c0fd39b22d52eba04,ma_choice_v4_rand_real1,5e76c87c0fd39b22d52eba04,2,Size of yard,1,0 square feet,600 square feet,direction,13947,,,,,2022-06-27 18:24:36,53610
61245769826057b69678987a,ma_choice_v4_rand_real1,61245769826057b69678987a,2,Size of home,1,1200 square feet,1500 square feet,direction,3547,,,,,2022-06-27 18:24:39,53611
61245769826057b69678987a,ma_choice_v4_rand_real1,61245769826057b69678987a,2,Size of home,1,1500 square feet,1800 square feet,direction,3137,,,,,2022-06-27 18:24:42,53613
61245769826057b69678987a,ma_choice_v4_rand_real1,61245769826057b69678987a,3,Noise pollution,0,Very Low,Very High,direction,3129,,,,,2022-06-27 18:24:46,53615
60fceb63bd7ca52152c7362c,ma_choice_v4_rand_real1,60fceb63bd7ca52152c7362c,5,Quality of kitchen,86,,,wad_att_rating,12514,,,,,2022-06-27 18:24:47,53616
5e76c87c0fd39b22d52eba04,ma_choice_v4_rand_real1,5e76c87c0fd39b22d52eba04,2,Size of yard,1,0 square feet,150 square feet,direction,11687,,,,,2022-06-27 18:24:47,53617
61245769826057b69678987a,ma_choice_v4_rand_real1,61245769826057b69678987a,3,Noise pollution,0,Very Low,Low,direction,4495,,,,,2022-06-27 18:24:51,53618
60fceb63bd7ca52152c7362c,ma_choice_v4_rand_real1,60fceb63bd7ca52152c7362c,8,Size of home,49,,,wad_att_rating,5263,,,,,2022-06-27 18:24:52,53620
5e76c87c0fd39b22d52eba04,ma_choice_v4_rand_real1,5e76c87c0fd39b22d52eba04,2,Size of yard,1,150 square feet,300 square feet,direction,6741,,,,,2022-06-27 18:24:54,53621
61245769826057b69678987a,ma_choice_v4_rand_real1,61245769826057b69678987a,3,Noise pollution,0,Low,Moderate,direction,4306,,,,,2022-06-27 18:24:55,53622
61245769826057b69678987a,ma_choice_v4_rand_real1,61245769826057b69678987a,3,Noise pollution,0,Moderate,High,direction,1802,,,,,2022-06-27 18:24:57,53624
60fceb63bd7ca52152c7362c,ma_choice_v4_rand_real1,60fceb63bd7ca52152c7362c,7,Amount of traffic,24,,,wad_att_rating,5547,,,,,2022-06-27 18:24:58,53625
61245769826057b69678987a,ma_choice_v4_rand_real1,61245769826057b69678987a,3,Noise pollution,0,High,Very High,direction,2579,,,,,2022-06-27 18:25:00,53626
60fceb63bd7ca52152c7362c,ma_choice_v4_rand_real1,60fceb63bd7ca52152c7362c,3,Year building was built,23,,,wad_att_rating,4798,,,,,2022-06-27 18:25:03,53628
61245769826057b69678987a,ma_choice_v4_rand_real1,61245769826057b69678987a,4,Amount of traffic,0,Very Little,A Lot,direction,2675,,,,,2022-06-27 18:25:03,53629
61245769826057b69678987a,ma_choice_v4_rand_real1,61245769826057b69678987a,4,Amount of traffic,0,Very Little,A Little,direction,3496,,,,,2022-06-27 18:25:07,53630
5e76c87c0fd39b22d52eba04,ma_choice_v4_rand_real1,5e76c87c0fd39b22d52eba04,2,Size of yard,1,300 square feet,450 square feet,direction,14874,,,,,2022-06-27 18:25:09,53631
61245769826057b69678987a,ma_choice_v4_rand_real1,61245769826057b69678987a,4,Amount of traffic,0,A Little,A Moderate Amount,direction,2406,,,,,2022-06-27 18:25:09,53632
60fceb63bd7ca52152c7362c,ma_choice_v4_rand_real1,60fceb63bd7ca52152c7362c,4,Size of yard,5,,,wad_att_rating,7547,,,,,2022-06-27 18:25:10,53634
61245769826057b69678987a,ma_choice_v4_rand_real1,61245769826057b69678987a,4,Amount of traffic,0,A Moderate Amount,A Lot,direction,2916,,,,,2022-06-27 18:25:12,53635
61245769826057b69678987a,ma_choice_v4_rand_real1,61245769826057b69678987a,5,Year building was built,1,1950,2020,direction,2713,,,,,2022-06-27 18:25:16,53637
60fceb63bd7ca52152c7362c,ma_choice_v4_rand_real1,60fceb63bd7ca52152c7362c,0,Closeness to parks,0,,,wad_att_rating,6646,,,,,2022-06-27 18:25:17,53638
5e76c87c0fd39b22d52eba04,ma_choice_v4_rand_real1,5e76c87c0fd39b22d52eba04,2,Size of yard,1,450 square feet,600 square feet,direction,7969,,,,,2022-06-27 18:25:17,53639
61245769826057b69678987a,ma_choice_v4_rand_real1,61245769826057b69678987a,5,Year building was built,1,1950,1968,direction,2040,,,,,2022-06-27 18:25:18,53640
61245769826057b69678987a,ma_choice_v4_rand_real1,61245769826057b69678987a,5,Year building was built,1,1968,1985,direction,4563,,,,,2022-06-27 18:25:23,53642
61245769826057b69678987a,ma_choice_v4_rand_real1,61245769826057b69678987a,5,Year building was built,1,1985,2003,direction,2453,,,,,2022-06-27 18:25:25,53643
61245769826057b69678987a,ma_choice_v4_rand_real1,61245769826057b69678987a,5,Year building was built,0,2003,2020,direction,1910,,,,,2022-06-27 18:25:27,53645
5e76c87c0fd39b22d52eba04,ma_choice_v4_rand_real1,5e76c87c0fd39b22d52eba04,3,Size of home,1,600 square feet,1800 square feet,direction,7626,,,,,2022-06-27 18:25:28,53646
61245769826057b69678987a,ma_choice_v4_rand_real1,61245769826057b69678987a,6,Closeness to parks,0,10 min away,30 min away,direction,1978,,,,,2022-06-27 18:25:30,53647
61245769826057b69678987a,ma_choice_v4_rand_real1,61245769826057b69678987a,6,Closeness to parks,0,10 min away,15 min away,direction,3004,,,,,2022-06-27 18:25:33,53649
5e76c87c0fd39b22d52eba04,ma_choice_v4_rand_real1,5e76c87c0fd39b22d52eba04,3,Size of home,1,600 square feet,900 square feet,direction,5351,,,,,2022-06-27 18:25:33,53650
61245769826057b69678987a,ma_choice_v4_rand_real1,61245769826057b69678987a,6,Closeness to parks,0,15 min away,20 min away,direction,1913,,,,,2022-06-27 18:25:35,53651
5e76c87c0fd39b22d52eba04,ma_choice_v4_rand_real1,5e76c87c0fd39b22d52eba04,3,Size of home,1,900 square feet,1200 square feet,direction,3876,,,,,2022-06-27 18:25:37,53652
61245769826057b69678987a,ma_choice_v4_rand_real1,61245769826057b69678987a,6,Closeness to parks,0,20 min away,25 min away,direction,2260,,,,,2022-06-27 18:25:37,53653
61245769826057b69678987a,ma_choice_v4_rand_real1,61245769826057b69678987a,6,Closeness to parks,0,25 min away,30 min away,direction,2715,,,,,2022-06-27 18:25:40,53654
5e76c87c0fd39b22d52eba04,ma_choice_v4_rand_real1,5e76c87c0fd39b22d52eba04,3,Size of home,1,1200 square feet,1500 square feet,direction,4689,,,,,2022-06-27 18:25:42,53656
61245769826057b69678987a,ma_choice_v4_rand_real1,61245769826057b69678987a,7,Quality of heat/AC system,1,Very Bad,Very Good,direction,1765,,,,,2022-06-27 18:25:43,53657
61245769826057b69678987a,ma_choice_v4_rand_real1,61245769826057b69678987a,7,Quality of heat/AC system,1,Very Bad,Bad,direction,1799,,,,,2022-06-27 18:25:45,53658
61245769826057b69678987a,ma_choice_v4_rand_real1,61245769826057b69678987a,7,Quality of heat/AC system,1,Bad,Moderate,direction,1976,,,,,2022-06-27 18:25:47,53659
61245769826057b69678987a,ma_choice_v4_rand_real1,61245769826057b69678987a,7,Quality of heat/AC system,1,Moderate,Good,direction,1783,,,,,2022-06-27 18:25:48,53661
61245769826057b69678987a,ma_choice_v4_rand_real1,61245769826057b69678987a,7,Quality of heat/AC system,1,Good,Very Good,direction,2072,,,,,2022-06-27 18:25:50,53662
61245769826057b69678987a,ma_choice_v4_rand_real1,61245769826057b69678987a,8,Quality of kitchen,1,Very Bad,Very Good,direction,1550,,,,,2022-06-27 18:25:54,53663
61245769826057b69678987a,ma_choice_v4_rand_real1,61245769826057b69678987a,8,Quality of kitchen,1,Very Bad,Bad,direction,2619,,,,,2022-06-27 18:25:56,53664
5e76c87c0fd39b22d52eba04,ma_choice_v4_rand_real1,5e76c87c0fd39b22d52eba04,3,Size of home,1,1500 square feet,1800 square feet,direction,14995,,,,,2022-06-27 18:25:57,53665
61245769826057b69678987a,ma_choice_v4_rand_real1,61245769826057b69678987a,8,Quality of kitchen,1,Bad,Moderate,direction,2049,,,,,2022-06-27 18:25:58,53667
61245769826057b69678987a,ma_choice_v4_rand_real1,61245769826057b69678987a,8,Quality of kitchen,1,Moderate,Good,direction,2487,,,,,2022-06-27 18:26:01,53668
61245769826057b69678987a,ma_choice_v4_rand_real1,61245769826057b69678987a,8,Quality of kitchen,1,Good,Very Good,direction,1770,,,,,2022-06-27 18:26:03,53669
5e76c87c0fd39b22d52eba04,ma_choice_v4_rand_real1,5e76c87c0fd39b22d52eba04,4,Quality of kitchen,1,Very Bad,Very Good,direction,8257,,,,,2022-06-27 18:26:09,53672
5e76c87c0fd39b22d52eba04,ma_choice_v4_rand_real1,5e76c87c0fd39b22d52eba04,4,Quality of kitchen,1,Very Bad,Bad,direction,5755,,,,,2022-06-27 18:26:14,53674
5e76c87c0fd39b22d52eba04,ma_choice_v4_rand_real1,5e76c87c0fd39b22d52eba04,4,Quality of kitchen,1,Bad,Moderate,direction,6358,,,,,2022-06-27 18:26:21,53675
5e76c87c0fd39b22d52eba04,ma_choice_v4_rand_real1,5e76c87c0fd39b22d52eba04,4,Quality of kitchen,1,Moderate,Good,direction,4961,,,,,2022-06-27 18:26:26,53677
5e76c87c0fd39b22d52eba04,ma_choice_v4_rand_real1,5e76c87c0fd39b22d52eba04,4,Quality of kitchen,1,Good,Very Good,direction,3953,,,,,2022-06-27 18:26:30,53679
615327ab3d238b032366a545,ma_choice_v4_rand_real1,615327ab3d238b032366a545,0,Quality of heat/AC system,1,Very Bad,Very Good,direction,8558,,,,,2022-06-27 18:26:34,53680
615327ab3d238b032366a545,ma_choice_v4_rand_real1,615327ab3d238b032366a545,0,Quality of heat/AC system,1,Very Bad,Bad,direction,5290,,,,,2022-06-27 18:26:39,53682
5e76c87c0fd39b22d52eba04,ma_choice_v4_rand_real1,5e76c87c0fd39b22d52eba04,5,Amount of traffic,0,Very Little,A Lot,direction,8290,,,,,2022-06-27 18:26:42,53684
615327ab3d238b032366a545,ma_choice_v4_rand_real1,615327ab3d238b032366a545,0,Quality of heat/AC system,1,Bad,Moderate,direction,3604,,,,,2022-06-27 18:26:42,53685
615327ab3d238b032366a545,ma_choice_v4_rand_real1,615327ab3d238b032366a545,0,Quality of heat/AC system,1,Moderate,Good,direction,3913,,,,,2022-06-27 18:26:46,53692
5e76c87c0fd39b22d52eba04,ma_choice_v4_rand_real1,5e76c87c0fd39b22d52eba04,5,Amount of traffic,0,Very Little,A Little,direction,8237,,,,,2022-06-27 18:26:50,53693
615327ab3d238b032366a545,ma_choice_v4_rand_real1,615327ab3d238b032366a545,0,Quality of heat/AC system,1,Good,Very Good,direction,9468,,,,,2022-06-27 18:26:56,53695
5e76c87c0fd39b22d52eba04,ma_choice_v4_rand_real1,5e76c87c0fd39b22d52eba04,5,Amount of traffic,0,A Little,A Moderate Amount,direction,7669,,,,,2022-06-27 18:26:58,53697
615327ab3d238b032366a545,ma_choice_v4_rand_real1,615327ab3d238b032366a545,1,Closeness to parks,0,10 min away,30 min away,direction,3691,,,,,2022-06-27 18:27:01,53698
615327ab3d238b032366a545,ma_choice_v4_rand_real1,615327ab3d238b032366a545,1,Closeness to parks,0,10 min away,15 min away,direction,2568,,,,,2022-06-27 18:27:03,53700
5e76c87c0fd39b22d52eba04,ma_choice_v4_rand_real1,5e76c87c0fd39b22d52eba04,5,Amount of traffic,0,A Moderate Amount,A Lot,direction,6307,,,,,2022-06-27 18:27:04,53702
615327ab3d238b032366a545,ma_choice_v4_rand_real1,615327ab3d238b032366a545,1,Closeness to parks,0,15 min away,20 min away,direction,2811,,,,,2022-06-27 18:27:06,53703
615327ab3d238b032366a545,ma_choice_v4_rand_real1,615327ab3d238b032366a545,1,Closeness to parks,0,20 min away,25 min away,direction,2583,,,,,2022-06-27 18:27:09,53705
615327ab3d238b032366a545,ma_choice_v4_rand_real1,615327ab3d238b032366a545,1,Closeness to parks,0,25 min away,30 min away,direction,2292,,,,,2022-06-27 18:27:11,53707
5e76c87c0fd39b22d52eba04,ma_choice_v4_rand_real1,5e76c87c0fd39b22d52eba04,6,Quality of heat/AC system,1,Very Bad,Very Good,direction,5306,,,,,2022-06-27 18:27:12,53709
615327ab3d238b032366a545,ma_choice_v4_rand_real1,615327ab3d238b032366a545,2,Year building was built,1,1950,2020,direction,2511,,,,,2022-06-27 18:27:14,53710
615327ab3d238b032366a545,ma_choice_v4_rand_real1,615327ab3d238b032366a545,2,Year building was built,1,1950,1968,direction,2862,,,,,2022-06-27 18:27:17,53713
5e76c87c0fd39b22d52eba04,ma_choice_v4_rand_real1,5e76c87c0fd39b22d52eba04,6,Quality of heat/AC system,1,Very Bad,Bad,direction,6386,,,,,2022-06-27 18:27:19,53714
615327ab3d238b032366a545,ma_choice_v4_rand_real1,615327ab3d238b032366a545,2,Year building was built,1,1968,1985,direction,3961,,,,,2022-06-27 18:27:21,53716
5e76c87c0fd39b22d52eba04,ma_choice_v4_rand_real1,5e76c87c0fd39b22d52eba04,6,Quality of heat/AC system,1,Bad,Moderate,direction,5592,,,,,2022-06-27 18:27:24,53718
615327ab3d238b032366a545,ma_choice_v4_rand_real1,615327ab3d238b032366a545,2,Year building was built,1,1985,2003,direction,3161,,,,,2022-06-27 18:27:24,53719
615327ab3d238b032366a545,ma_choice_v4_rand_real1,615327ab3d238b032366a545,2,Year building was built,1,2003,2020,direction,1818,,,,,2022-06-27 18:27:26,53721
5e76c87c0fd39b22d52eba04,ma_choice_v4_rand_real1,5e76c87c0fd39b22d52eba04,6,Quality of heat/AC system,1,Moderate,Good,direction,3776,,,,,2022-06-27 18:27:28,53722
615327ab3d238b032366a545,ma_choice_v4_rand_real1,615327ab3d238b032366a545,3,Size of yard,1,0 square feet,600 square feet,direction,2442,,,,,2022-06-27 18:27:30,53724
5e76c87c0fd39b22d52eba04,ma_choice_v4_rand_real1,5e76c87c0fd39b22d52eba04,6,Quality of heat/AC system,1,Good,Very Good,direction,4139,,,,,2022-06-27 18:27:32,53725
615327ab3d238b032366a545,ma_choice_v4_rand_real1,615327ab3d238b032366a545,3,Size of yard,1,0 square feet,150 square feet,direction,2669,,,,,2022-06-27 18:27:32,53726
615327ab3d238b032366a545,ma_choice_v4_rand_real1,615327ab3d238b032366a545,3,Size of yard,1,150 square feet,300 square feet,direction,5048,,,,,2022-06-27 18:27:37,53728
615327ab3d238b032366a545,ma_choice_v4_rand_real1,615327ab3d238b032366a545,3,Size of yard,1,300 square feet,450 square feet,direction,1790,,,,,2022-06-27 18:27:39,53729
615327ab3d238b032366a545,ma_choice_v4_rand_real1,615327ab3d238b032366a545,3,Size of yard,1,450 square feet,600 square feet,direction,1411,,,,,2022-06-27 18:27:41,53730
5e76c87c0fd39b22d52eba04,ma_choice_v4_rand_real1,5e76c87c0fd39b22d52eba04,7,Noise pollution,0,Very Low,Very High,direction,5636,,,,,2022-06-27 18:27:41,53731
5e76c87c0fd39b22d52eba04,ma_choice_v4_rand_real1,5e76c87c0fd39b22d52eba04,7,Noise pollution,0,Very Low,Low,direction,6039,,,,,2022-06-27 18:27:47,53732
615327ab3d238b032366a545,ma_choice_v4_rand_real1,615327ab3d238b032366a545,4,Amount of traffic,0,Very Little,A Lot,direction,6251,,,,,2022-06-27 18:27:48,53733
5e76c87c0fd39b22d52eba04,ma_choice_v4_rand_real1,5e76c87c0fd39b22d52eba04,7,Noise pollution,0,Low,Moderate,direction,6579,,,,,2022-06-27 18:27:54,53734
60dcb78052cc0205e4b99989,ma_choice_v4_rand_real1,60dcb78052cc0205e4b99989,0,Closeness to parks,0,,,wad_att_rating,4246,,,,,2022-06-27 18:27:54,53735
5e76c87c0fd39b22d52eba04,ma_choice_v4_rand_real1,5e76c87c0fd39b22d52eba04,7,Noise pollution,0,Moderate,High,direction,3944,,,,,2022-06-27 18:27:57,53736
615327ab3d238b032366a545,ma_choice_v4_rand_real1,615327ab3d238b032366a545,4,Amount of traffic,0,Very Little,A Little,direction,10790,,,,,2022-06-27 18:27:59,53737
60dcb78052cc0205e4b99989,ma_choice_v4_rand_real1,60dcb78052cc0205e4b99989,3,Year building was built,93,,,wad_att_rating,6901,,,,,2022-06-27 18:28:01,53738
615327ab3d238b032366a545,ma_choice_v4_rand_real1,615327ab3d238b032366a545,4,Amount of traffic,0,A Little,A Moderate Amount,direction,2332,,,,,2022-06-27 18:28:01,53739
5e76c87c0fd39b22d52eba04,ma_choice_v4_rand_real1,5e76c87c0fd39b22d52eba04,7,Noise pollution,0,High,Very High,direction,3637,,,,,2022-06-27 18:28:01,53740
615327ab3d238b032366a545,ma_choice_v4_rand_real1,615327ab3d238b032366a545,4,Amount of traffic,0,A Moderate Amount,A Lot,direction,2247,,,,,2022-06-27 18:28:03,53741
615327ab3d238b032366a545,ma_choice_v4_rand_real1,615327ab3d238b032366a545,5,Size of home,1,600 square feet,1800 square feet,direction,2257,,,,,2022-06-27 18:28:07,53742
60dcb78052cc0205e4b99989,ma_choice_v4_rand_real1,60dcb78052cc0205e4b99989,8,Size of home,0,,,wad_att_rating,7134,,,,,2022-06-27 18:28:08,53743
5e76c87c0fd39b22d52eba04,ma_choice_v4_rand_real1,5e76c87c0fd39b22d52eba04,8,Reputation of closest school,1,Very Bad,Very Good,direction,3924,,,,,2022-06-27 18:28:08,53744
615327ab3d238b032366a545,ma_choice_v4_rand_real1,615327ab3d238b032366a545,5,Size of home,1,600 square feet,900 square feet,direction,2254,,,,,2022-06-27 18:28:09,53745
60dcb78052cc0205e4b99989,ma_choice_v4_rand_real1,60dcb78052cc0205e4b99989,4,Size of yard,0,,,wad_att_rating,1292,,,,,2022-06-27 18:28:09,53746
60dcb78052cc0205e4b99989,ma_choice_v4_rand_real1,60dcb78052cc0205e4b99989,1,Noise pollution,0,,,wad_att_rating,3182,,,,,2022-06-27 18:28:12,53747
615327ab3d238b032366a545,ma_choice_v4_rand_real1,615327ab3d238b032366a545,5,Size of home,1,900 square feet,1200 square feet,direction,4819,,,,,2022-06-27 18:28:14,53748
5e76c87c0fd39b22d52eba04,ma_choice_v4_rand_real1,5e76c87c0fd39b22d52eba04,8,Reputation of closest school,1,Very Bad,Bad,direction,6343,,,,,2022-06-27 18:28:15,53749
60dcb78052cc0205e4b99989,ma_choice_v4_rand_real1,60dcb78052cc0205e4b99989,5,Quality of kitchen,81,,,wad_att_rating,7134,,,,,2022-06-27 18:28:19,53750
5e76c87c0fd39b22d52eba04,ma_choice_v4_rand_real1,5e76c87c0fd39b22d52eba04,8,Reputation of closest school,1,Bad,Moderate,direction,5451,,,,,2022-06-27 18:28:20,53751
60dcb78052cc0205e4b99989,ma_choice_v4_rand_real1,60dcb78052cc0205e4b99989,2,Reputation of closest school,0,,,wad_att_rating,2310,,,,,2022-06-27 18:28:22,53752
60dcb78052cc0205e4b99989,ma_choice_v4_rand_real1,60dcb78052cc0205e4b99989,7,Amount of traffic,0,,,wad_att_rating,1220,,,,,2022-06-27 18:28:23,53753
5e76c87c0fd39b22d52eba04,ma_choice_v4_rand_real1,5e76c87c0fd39b22d52eba04,8,Reputation of closest school,1,Moderate,Good,direction,3271,,,,,2022-06-27 18:28:23,53754
615327ab3d238b032366a545,ma_choice_v4_rand_real1,615327ab3d238b032366a545,5,Size of home,1,1200 square feet,1500 square feet,direction,11820,,,,,2022-06-27 18:28:25,53755
60dcb78052cc0205e4b99989,ma_choice_v4_rand_real1,60dcb78052cc0205e4b99989,6,Quality of heat/AC system,75,,,wad_att_rating,3918,,,,,2022-06-27 18:28:27,53756
5e76c87c0fd39b22d52eba04,ma_choice_v4_rand_real1,5e76c87c0fd39b22d52eba04,8,Reputation of closest school,1,Good,Very Good,direction,3993,,,,,2022-06-27 18:28:27,53757
615327ab3d238b032366a545,ma_choice_v4_rand_real1,615327ab3d238b032366a545,5,Size of home,1,1500 square feet,1800 square feet,direction,3760,,,,,2022-06-27 18:28:29,53758
615327ab3d238b032366a545,ma_choice_v4_rand_real1,615327ab3d238b032366a545,6,Reputation of closest school,1,Very Bad,Very Good,direction,1977,,,,,2022-06-27 18:28:33,53759
615327ab3d238b032366a545,ma_choice_v4_rand_real1,615327ab3d238b032366a545,6,Reputation of closest school,1,Very Bad,Bad,direction,2547,,,,,2022-06-27 18:28:35,53760
615327ab3d238b032366a545,ma_choice_v4_rand_real1,615327ab3d238b032366a545,6,Reputation of closest school,1,Bad,Moderate,direction,1762,,,,,2022-06-27 18:28:37,53761
615327ab3d238b032366a545,ma_choice_v4_rand_real1,615327ab3d238b032366a545,6,Reputation of closest school,1,Moderate,Good,direction,1740,,,,,2022-06-27 18:28:39,53762
615327ab3d238b032366a545,ma_choice_v4_rand_real1,615327ab3d238b032366a545,6,Reputation of closest school,1,Good,Very Good,direction,2418,,,,,2022-06-27 18:28:41,53763
60dcb78052cc0205e4b99989,ma_choice_v4_rand_real1,60dcb78052cc0205e4b99989,0,Quality of heat/AC system,1,,,ew_att_rating,8741,,,,,2022-06-27 18:28:46,53764
60dcb78052cc0205e4b99989,ma_choice_v4_rand_real1,60dcb78052cc0205e4b99989,0,Quality of kitchen,1,,,ew_att_rating,8741,,,,,2022-06-27 18:28:46,53765
60dcb78052cc0205e4b99989,ma_choice_v4_rand_real1,60dcb78052cc0205e4b99989,0,Year building was built,1,,,ew_att_rating,8741,,,,,2022-06-27 18:28:46,53766
615327ab3d238b032366a545,ma_choice_v4_rand_real1,615327ab3d238b032366a545,7,Noise pollution,0,Very Low,Very High,direction,2842,,,,,2022-06-27 18:28:50,53767
615327ab3d238b032366a545,ma_choice_v4_rand_real1,615327ab3d238b032366a545,7,Noise pollution,0,Very Low,Low,direction,2889,,,,,2022-06-27 18:28:53,53768
60dcb78052cc0205e4b99989,ma_choice_v4_rand_real1,60dcb78052cc0205e4b99989,0,Year building was built,1,,,lex_att_rating,3762,,,,,2022-06-27 18:28:59,53769
