subject,version,assignmentId,trial,attribute,rating,least_preferred,most_preferred,type,rt,rt2,full_or_lex,signed_weights,original_or_followup,stamp,id
61267bcd72257ca236f7f7a7,ma_choice_v4_observers_real1,61267bcd72257ca236f7f7a7,0,Closeness to parks,1,,,lex_att_rating,6126,,,,,2022-06-21 15:11:59,28404
61267bcd72257ca236f7f7a7,ma_choice_v4_observers_real1,61267bcd72257ca236f7f7a7,2,Reputation of closest school,2,,,wad_att_rating,7638,,,,,2022-06-21 15:12:16,28405
61267bcd72257ca236f7f7a7,ma_choice_v4_observers_real1,61267bcd72257ca236f7f7a7,4,Size of yard,24,,,wad_att_rating,6848,,,,,2022-06-21 15:12:23,28406
61267bcd72257ca236f7f7a7,ma_choice_v4_observers_real1,61267bcd72257ca236f7f7a7,7,Amount of traffic,50,,,wad_att_rating,8108,,,,,2022-06-21 15:12:31,28407
61267bcd72257ca236f7f7a7,ma_choice_v4_observers_real1,61267bcd72257ca236f7f7a7,6,Quality of heat/AC system,23,,,wad_att_rating,4653,,,,,2022-06-21 15:12:36,28408
61267bcd72257ca236f7f7a7,ma_choice_v4_observers_real1,61267bcd72257ca236f7f7a7,0,Closeness to parks,88,,,wad_att_rating,4048,,,,,2022-06-21 15:12:40,28409
61267bcd72257ca236f7f7a7,ma_choice_v4_observers_real1,61267bcd72257ca236f7f7a7,5,Quality of kitchen,55,,,wad_att_rating,3239,,,,,2022-06-21 15:12:43,28410
61267bcd72257ca236f7f7a7,ma_choice_v4_observers_real1,61267bcd72257ca236f7f7a7,1,Noise pollution,25,,,wad_att_rating,5091,,,,,2022-06-21 15:12:48,28411
61267bcd72257ca236f7f7a7,ma_choice_v4_observers_real1,61267bcd72257ca236f7f7a7,8,Size of home,60,,,wad_att_rating,5373,,,,,2022-06-21 15:12:53,28412
61267bcd72257ca236f7f7a7,ma_choice_v4_observers_real1,61267bcd72257ca236f7f7a7,3,Year building was built,75,,,wad_att_rating,4669,,,,,2022-06-21 15:12:58,28413
61267bcd72257ca236f7f7a7,ma_choice_v4_observers_real1,61267bcd72257ca236f7f7a7,0,Closeness to parks,1,,,ew_att_rating,20581,,,,,2022-06-21 15:13:21,28414
61267bcd72257ca236f7f7a7,ma_choice_v4_observers_real1,61267bcd72257ca236f7f7a7,0,Size of home,1,,,ew_att_rating,20581,,,,,2022-06-21 15:13:21,28415
61267bcd72257ca236f7f7a7,ma_choice_v4_observers_real1,61267bcd72257ca236f7f7a7,0,Year building was built,1,,,ew_att_rating,20581,,,,,2022-06-21 15:13:21,28416
61267bcd72257ca236f7f7a7,ma_choice_v4_observers_real1,61267bcd72257ca236f7f7a7,0,Size of yard,1,,,ew_att_rating,20581,,,,,2022-06-21 15:13:21,28417
61267bcd72257ca236f7f7a7,ma_choice_v4_observers_real1,61267bcd72257ca236f7f7a7,5,Quality of kitchen,-1,Bad,Good,direction,19986,,,,,2022-06-21 15:14:39,28418
61267bcd72257ca236f7f7a7,ma_choice_v4_observers_real1,61267bcd72257ca236f7f7a7,1,Noise pollution,-1,Low,High,direction,2600,,,,,2022-06-21 15:14:47,28419
61267bcd72257ca236f7f7a7,ma_choice_v4_observers_real1,61267bcd72257ca236f7f7a7,4,Size of yard,-1,300 square feet,0 square feet,direction,4942,,,,,2022-06-21 15:14:59,28420
61267bcd72257ca236f7f7a7,ma_choice_v4_observers_real1,61267bcd72257ca236f7f7a7,2,Reputation of closest school,-1,Good,Very Bad,direction,2132,,,,,2022-06-21 15:15:18,28421
61267bcd72257ca236f7f7a7,ma_choice_v4_observers_real1,61267bcd72257ca236f7f7a7,0,Closeness to parks,-1,10 min away,25 min away,direction,2520,,,,,2022-06-21 15:15:27,28422
61267bcd72257ca236f7f7a7,ma_choice_v4_observers_real1,61267bcd72257ca236f7f7a7,6,Quality of heat/AC system,-1,Good,Bad,direction,3732,,,,,2022-06-21 15:15:39,28423
61267bcd72257ca236f7f7a7,ma_choice_v4_observers_real1,61267bcd72257ca236f7f7a7,7,Amount of traffic,-1,A Little,A Moderate Amount,direction,5058,,,,,2022-06-21 15:15:49,28424
61267bcd72257ca236f7f7a7,ma_choice_v4_observers_real1,61267bcd72257ca236f7f7a7,3,Year building was built,-1,2020,1950,direction,2237,,,,,2022-06-21 15:15:57,28425
61267bcd72257ca236f7f7a7,ma_choice_v4_observers_real1,61267bcd72257ca236f7f7a7,8,Size of home,-1,1200 square feet,1800 square feet,direction,4689,,,,,2022-06-21 15:16:22,28426
5748077a5e5491000e3bf711,ma_choice_v4_observers_real1,5748077a5e5491000e3bf711,8,Size of home,37,,,wad_att_rating,5400,,,,,2022-06-21 15:19:31,28427
5748077a5e5491000e3bf711,ma_choice_v4_observers_real1,5748077a5e5491000e3bf711,4,Size of yard,70,,,wad_att_rating,2639,,,,,2022-06-21 15:19:33,28428
5748077a5e5491000e3bf711,ma_choice_v4_observers_real1,5748077a5e5491000e3bf711,0,Closeness to parks,49,,,wad_att_rating,2352,,,,,2022-06-21 15:19:36,28429
5748077a5e5491000e3bf711,ma_choice_v4_observers_real1,5748077a5e5491000e3bf711,3,Year building was built,28,,,wad_att_rating,2707,,,,,2022-06-21 15:19:38,28430
5748077a5e5491000e3bf711,ma_choice_v4_observers_real1,5748077a5e5491000e3bf711,1,Noise pollution,76,,,wad_att_rating,1919,,,,,2022-06-21 15:19:40,28431
5748077a5e5491000e3bf711,ma_choice_v4_observers_real1,5748077a5e5491000e3bf711,7,Amount of traffic,38,,,wad_att_rating,2472,,,,,2022-06-21 15:19:43,28432
5748077a5e5491000e3bf711,ma_choice_v4_observers_real1,5748077a5e5491000e3bf711,2,Reputation of closest school,49,,,wad_att_rating,2624,,,,,2022-06-21 15:19:45,28433
5748077a5e5491000e3bf711,ma_choice_v4_observers_real1,5748077a5e5491000e3bf711,5,Quality of kitchen,50,,,wad_att_rating,1720,,,,,2022-06-21 15:19:47,28434
5748077a5e5491000e3bf711,ma_choice_v4_observers_real1,5748077a5e5491000e3bf711,6,Quality of heat/AC system,50,,,wad_att_rating,1583,,,,,2022-06-21 15:19:49,28435
5748077a5e5491000e3bf711,ma_choice_v4_observers_real1,5748077a5e5491000e3bf711,0,Size of home,1,,,lex_att_rating,6602,,,,,2022-06-21 15:19:59,28436
5748077a5e5491000e3bf711,ma_choice_v4_observers_real1,5748077a5e5491000e3bf711,0,Size of home,1,,,ew_att_rating,6981,,,,,2022-06-21 15:20:08,28437
5748077a5e5491000e3bf711,ma_choice_v4_observers_real1,5748077a5e5491000e3bf711,0,Noise pollution,1,,,ew_att_rating,6981,,,,,2022-06-21 15:20:08,28438
5748077a5e5491000e3bf711,ma_choice_v4_observers_real1,5748077a5e5491000e3bf711,0,Size of yard,1,,,ew_att_rating,6981,,,,,2022-06-21 15:20:08,28439
5748077a5e5491000e3bf711,ma_choice_v4_observers_real1,5748077a5e5491000e3bf711,8,Size of home,-1,1800 square feet,600 square feet,direction,1675,,,,,2022-06-21 15:20:33,28440
5748077a5e5491000e3bf711,ma_choice_v4_observers_real1,5748077a5e5491000e3bf711,3,Year building was built,-1,2020,1950,direction,1397,,,,,2022-06-21 15:20:42,28441
5748077a5e5491000e3bf711,ma_choice_v4_observers_real1,5748077a5e5491000e3bf711,5,Quality of kitchen,-1,Moderate,Moderate,direction,1250,,,,,2022-06-21 15:20:46,28442
5748077a5e5491000e3bf711,ma_choice_v4_observers_real1,5748077a5e5491000e3bf711,6,Quality of heat/AC system,-1,Good,Very Bad,direction,1752,,,,,2022-06-21 15:20:50,28443
5748077a5e5491000e3bf711,ma_choice_v4_observers_real1,5748077a5e5491000e3bf711,0,Closeness to parks,-1,25 min away,10 min away,direction,1326,,,,,2022-06-21 15:20:54,28444
5748077a5e5491000e3bf711,ma_choice_v4_observers_real1,5748077a5e5491000e3bf711,4,Size of yard,-1,600 square feet,0 square feet,direction,1265,,,,,2022-06-21 15:21:00,28445
5748077a5e5491000e3bf711,ma_choice_v4_observers_real1,5748077a5e5491000e3bf711,1,Noise pollution,-1,Very Low,High,direction,2106,,,,,2022-06-21 15:21:05,28446
5748077a5e5491000e3bf711,ma_choice_v4_observers_real1,5748077a5e5491000e3bf711,7,Amount of traffic,-1,A Little,A Lot,direction,1061,,,,,2022-06-21 15:21:09,28447
5748077a5e5491000e3bf711,ma_choice_v4_observers_real1,5748077a5e5491000e3bf711,2,Reputation of closest school,-1,Good,Very Bad,direction,1422,,,,,2022-06-21 15:21:12,28448
60feda404adb5c12f3220913,ma_choice_v4_observers_real1,60feda404adb5c12f3220913,0,Quality of kitchen,1,,,lex_att_rating,14805,,,,,2022-06-21 15:22:49,28449
60feda404adb5c12f3220913,ma_choice_v4_observers_real1,60feda404adb5c12f3220913,0,Size of yard,1,,,ew_att_rating,13732,,,,,2022-06-21 15:23:09,28450
60feda404adb5c12f3220913,ma_choice_v4_observers_real1,60feda404adb5c12f3220913,0,Quality of kitchen,1,,,ew_att_rating,13732,,,,,2022-06-21 15:23:09,28451
60feda404adb5c12f3220913,ma_choice_v4_observers_real1,60feda404adb5c12f3220913,0,Size of home,1,,,ew_att_rating,13732,,,,,2022-06-21 15:23:09,28452
60feda404adb5c12f3220913,ma_choice_v4_observers_real1,60feda404adb5c12f3220913,0,Year building was built,1,,,ew_att_rating,13732,,,,,2022-06-21 15:23:09,28453
60feda404adb5c12f3220913,ma_choice_v4_observers_real1,60feda404adb5c12f3220913,4,Size of yard,25,,,wad_att_rating,4104,,,,,2022-06-21 15:23:16,28454
60feda404adb5c12f3220913,ma_choice_v4_observers_real1,60feda404adb5c12f3220913,6,Quality of heat/AC system,0,,,wad_att_rating,4868,,,,,2022-06-21 15:23:20,28455
60feda404adb5c12f3220913,ma_choice_v4_observers_real1,60feda404adb5c12f3220913,1,Noise pollution,13,,,wad_att_rating,2958,,,,,2022-06-21 15:23:23,28456
60feda404adb5c12f3220913,ma_choice_v4_observers_real1,60feda404adb5c12f3220913,7,Amount of traffic,12,,,wad_att_rating,6663,,,,,2022-06-21 15:23:30,28457
60feda404adb5c12f3220913,ma_choice_v4_observers_real1,60feda404adb5c12f3220913,8,Size of home,76,,,wad_att_rating,4171,,,,,2022-06-21 15:23:34,28458
60feda404adb5c12f3220913,ma_choice_v4_observers_real1,60feda404adb5c12f3220913,5,Quality of kitchen,88,,,wad_att_rating,3913,,,,,2022-06-21 15:23:38,28459
60feda404adb5c12f3220913,ma_choice_v4_observers_real1,60feda404adb5c12f3220913,3,Year building was built,62,,,wad_att_rating,4707,,,,,2022-06-21 15:23:43,28460
60feda404adb5c12f3220913,ma_choice_v4_observers_real1,60feda404adb5c12f3220913,0,Closeness to parks,0,,,wad_att_rating,5472,,,,,2022-06-21 15:23:48,28461
60feda404adb5c12f3220913,ma_choice_v4_observers_real1,60feda404adb5c12f3220913,2,Reputation of closest school,0,,,wad_att_rating,3791,,,,,2022-06-21 15:23:52,28462
60feda404adb5c12f3220913,ma_choice_v4_observers_real1,60feda404adb5c12f3220913,5,Quality of kitchen,-1,Very Good,Very Bad,direction,2592,,,,,2022-06-21 15:24:39,28463
60feda404adb5c12f3220913,ma_choice_v4_observers_real1,60feda404adb5c12f3220913,8,Size of home,-1,1200 square feet,600 square feet,direction,2228,,,,,2022-06-21 15:24:46,28464
60feda404adb5c12f3220913,ma_choice_v4_observers_real1,60feda404adb5c12f3220913,4,Size of yard,-1,300 square feet,0 square feet,direction,6243,,,,,2022-06-21 15:24:55,28465
5a792c898fe2dc0001058c3b,ma_choice_v4_observers_real1,5a792c898fe2dc0001058c3b,0,Noise pollution,1,,,lex_att_rating,7830,,,,,2022-06-21 15:24:58,28466
60feda404adb5c12f3220913,ma_choice_v4_observers_real1,60feda404adb5c12f3220913,6,Quality of heat/AC system,-1,Good,Very Bad,direction,1805,,,,,2022-06-21 15:25:02,28467
60feda404adb5c12f3220913,ma_choice_v4_observers_real1,60feda404adb5c12f3220913,1,Noise pollution,-1,Moderate,Very High,direction,2052,,,,,2022-06-21 15:25:08,28468
60feda404adb5c12f3220913,ma_choice_v4_observers_real1,60feda404adb5c12f3220913,3,Year building was built,-1,2020,1950,direction,1649,,,,,2022-06-21 15:25:13,28469
60feda404adb5c12f3220913,ma_choice_v4_observers_real1,60feda404adb5c12f3220913,0,Closeness to parks,-1,20 min away,30 min away,direction,4330,,,,,2022-06-21 15:25:21,28470
60feda404adb5c12f3220913,ma_choice_v4_observers_real1,60feda404adb5c12f3220913,7,Amount of traffic,-1,A Little,A Lot,direction,2176,,,,,2022-06-21 15:25:27,28471
5a792c898fe2dc0001058c3b,ma_choice_v4_observers_real1,5a792c898fe2dc0001058c3b,0,Noise pollution,1,,,ew_att_rating,15546,,,,,2022-06-21 15:25:29,28472
60feda404adb5c12f3220913,ma_choice_v4_observers_real1,60feda404adb5c12f3220913,2,Reputation of closest school,-1,Very Good,Very Bad,direction,2103,,,,,2022-06-21 15:25:34,28473
5a792c898fe2dc0001058c3b,ma_choice_v4_observers_real1,5a792c898fe2dc0001058c3b,1,Noise pollution,100,,,wad_att_rating,9758,,,,,2022-06-21 15:25:53,28474
5a792c898fe2dc0001058c3b,ma_choice_v4_observers_real1,5a792c898fe2dc0001058c3b,8,Size of home,0,,,wad_att_rating,4376,,,,,2022-06-21 15:25:57,28475
5a792c898fe2dc0001058c3b,ma_choice_v4_observers_real1,5a792c898fe2dc0001058c3b,6,Quality of heat/AC system,0,,,wad_att_rating,3767,,,,,2022-06-21 15:26:01,28476
5a792c898fe2dc0001058c3b,ma_choice_v4_observers_real1,5a792c898fe2dc0001058c3b,5,Quality of kitchen,0,,,wad_att_rating,3098,,,,,2022-06-21 15:26:04,28477
5a792c898fe2dc0001058c3b,ma_choice_v4_observers_real1,5a792c898fe2dc0001058c3b,3,Year building was built,0,,,wad_att_rating,3735,,,,,2022-06-21 15:26:08,28478
5a792c898fe2dc0001058c3b,ma_choice_v4_observers_real1,5a792c898fe2dc0001058c3b,0,Closeness to parks,0,,,wad_att_rating,3322,,,,,2022-06-21 15:26:11,28479
5a792c898fe2dc0001058c3b,ma_choice_v4_observers_real1,5a792c898fe2dc0001058c3b,4,Size of yard,0,,,wad_att_rating,4093,,,,,2022-06-21 15:26:15,28480
5a792c898fe2dc0001058c3b,ma_choice_v4_observers_real1,5a792c898fe2dc0001058c3b,7,Amount of traffic,0,,,wad_att_rating,3316,,,,,2022-06-21 15:26:19,28481
5a792c898fe2dc0001058c3b,ma_choice_v4_observers_real1,5a792c898fe2dc0001058c3b,2,Reputation of closest school,0,,,wad_att_rating,4046,,,,,2022-06-21 15:26:23,28482
5a792c898fe2dc0001058c3b,ma_choice_v4_observers_real1,5a792c898fe2dc0001058c3b,2,Reputation of closest school,-1,Moderate,Moderate,direction,5384,,,,,2022-06-21 15:28:01,28483
5a792c898fe2dc0001058c3b,ma_choice_v4_observers_real1,5a792c898fe2dc0001058c3b,0,Closeness to parks,-1,10 min away,30 min away,direction,4706,,,,,2022-06-21 15:28:16,28484
5a792c898fe2dc0001058c3b,ma_choice_v4_observers_real1,5a792c898fe2dc0001058c3b,5,Quality of kitchen,-1,Moderate,Moderate,direction,4262,,,,,2022-06-21 15:28:25,28485
5a792c898fe2dc0001058c3b,ma_choice_v4_observers_real1,5a792c898fe2dc0001058c3b,3,Year building was built,-1,1985,1950,direction,5170,,,,,2022-06-21 15:28:39,28486
5a792c898fe2dc0001058c3b,ma_choice_v4_observers_real1,5a792c898fe2dc0001058c3b,4,Size of yard,-1,300 square feet,0 square feet,direction,2773,,,,,2022-06-21 15:28:48,28487
5a792c898fe2dc0001058c3b,ma_choice_v4_observers_real1,5a792c898fe2dc0001058c3b,7,Amount of traffic,-1,A Little,A Lot,direction,2688,,,,,2022-06-21 15:29:01,28488
5a792c898fe2dc0001058c3b,ma_choice_v4_observers_real1,5a792c898fe2dc0001058c3b,8,Size of home,-1,1200 square feet,600 square feet,direction,4035,,,,,2022-06-21 15:29:12,28489
5a792c898fe2dc0001058c3b,ma_choice_v4_observers_real1,5a792c898fe2dc0001058c3b,6,Quality of heat/AC system,-1,Good,Bad,direction,2709,,,,,2022-06-21 15:29:22,28490
5a792c898fe2dc0001058c3b,ma_choice_v4_observers_real1,5a792c898fe2dc0001058c3b,1,Noise pollution,-1,Very Low,Very High,direction,2893,,,,,2022-06-21 15:29:32,28491
5f36cce4f707260f387cf43c,ma_choice_v4_observers_real1,5f36cce4f707260f387cf43c,0,Quality of kitchen,1,,,ew_att_rating,15545,,,,,2022-06-21 15:51:33,28492
5f36cce4f707260f387cf43c,ma_choice_v4_observers_real1,5f36cce4f707260f387cf43c,0,Noise pollution,1,,,ew_att_rating,15545,,,,,2022-06-21 15:51:33,28493
5f36cce4f707260f387cf43c,ma_choice_v4_observers_real1,5f36cce4f707260f387cf43c,0,Amount of traffic,1,,,ew_att_rating,15545,,,,,2022-06-21 15:51:33,28494
5f36cce4f707260f387cf43c,ma_choice_v4_observers_real1,5f36cce4f707260f387cf43c,0,Quality of heat/AC system,1,,,ew_att_rating,15545,,,,,2022-06-21 15:51:33,28495
5f36cce4f707260f387cf43c,ma_choice_v4_observers_real1,5f36cce4f707260f387cf43c,5,Quality of kitchen,36,,,wad_att_rating,4691,,,,,2022-06-21 15:51:40,28496
5f36cce4f707260f387cf43c,ma_choice_v4_observers_real1,5f36cce4f707260f387cf43c,0,Closeness to parks,20,,,wad_att_rating,3573,,,,,2022-06-21 15:51:44,28497
5f36cce4f707260f387cf43c,ma_choice_v4_observers_real1,5f36cce4f707260f387cf43c,1,Noise pollution,87,,,wad_att_rating,3184,,,,,2022-06-21 15:51:47,28498
5f36cce4f707260f387cf43c,ma_choice_v4_observers_real1,5f36cce4f707260f387cf43c,8,Size of home,60,,,wad_att_rating,3862,,,,,2022-06-21 15:51:51,28499
5f36cce4f707260f387cf43c,ma_choice_v4_observers_real1,5f36cce4f707260f387cf43c,3,Year building was built,30,,,wad_att_rating,3297,,,,,2022-06-21 15:51:54,28500
5f36cce4f707260f387cf43c,ma_choice_v4_observers_real1,5f36cce4f707260f387cf43c,4,Size of yard,22,,,wad_att_rating,2776,,,,,2022-06-21 15:51:57,28501
5f36cce4f707260f387cf43c,ma_choice_v4_observers_real1,5f36cce4f707260f387cf43c,6,Quality of heat/AC system,71,,,wad_att_rating,3122,,,,,2022-06-21 15:52:00,28502
5f36cce4f707260f387cf43c,ma_choice_v4_observers_real1,5f36cce4f707260f387cf43c,7,Amount of traffic,84,,,wad_att_rating,3139,,,,,2022-06-21 15:52:04,28503
5f36cce4f707260f387cf43c,ma_choice_v4_observers_real1,5f36cce4f707260f387cf43c,2,Reputation of closest school,22,,,wad_att_rating,3034,,,,,2022-06-21 15:52:07,28504
5ee667342eebe93d1db38dd0,ma_choice_v4_observers_real1,5ee667342eebe93d1db38dd0,0,Quality of heat/AC system,1,,,ew_att_rating,11338,,,,,2022-06-21 15:52:11,28505
5ee667342eebe93d1db38dd0,ma_choice_v4_observers_real1,5ee667342eebe93d1db38dd0,0,Noise pollution,1,,,ew_att_rating,11338,,,,,2022-06-21 15:52:11,28506
5ee667342eebe93d1db38dd0,ma_choice_v4_observers_real1,5ee667342eebe93d1db38dd0,0,Amount of traffic,1,,,ew_att_rating,11338,,,,,2022-06-21 15:52:11,28507
5f36cce4f707260f387cf43c,ma_choice_v4_observers_real1,5f36cce4f707260f387cf43c,0,Quality of heat/AC system,1,,,lex_att_rating,4080,,,,,2022-06-21 15:52:14,28508
5ee667342eebe93d1db38dd0,ma_choice_v4_observers_real1,5ee667342eebe93d1db38dd0,0,Quality of heat/AC system,1,,,lex_att_rating,1839,,,,,2022-06-21 15:52:19,28509
5ee667342eebe93d1db38dd0,ma_choice_v4_observers_real1,5ee667342eebe93d1db38dd0,0,Closeness to parks,17,,,wad_att_rating,4346,,,,,2022-06-21 15:52:30,28510
5ee667342eebe93d1db38dd0,ma_choice_v4_observers_real1,5ee667342eebe93d1db38dd0,1,Noise pollution,75,,,wad_att_rating,2772,,,,,2022-06-21 15:52:33,28511
5ee667342eebe93d1db38dd0,ma_choice_v4_observers_real1,5ee667342eebe93d1db38dd0,6,Quality of heat/AC system,97,,,wad_att_rating,3498,,,,,2022-06-21 15:52:36,28512
5ee667342eebe93d1db38dd0,ma_choice_v4_observers_real1,5ee667342eebe93d1db38dd0,2,Reputation of closest school,17,,,wad_att_rating,2462,,,,,2022-06-21 15:52:39,28513
5ee667342eebe93d1db38dd0,ma_choice_v4_observers_real1,5ee667342eebe93d1db38dd0,8,Size of home,50,,,wad_att_rating,3664,,,,,2022-06-21 15:52:42,28514
5ee667342eebe93d1db38dd0,ma_choice_v4_observers_real1,5ee667342eebe93d1db38dd0,4,Size of yard,50,,,wad_att_rating,6964,,,,,2022-06-21 15:52:49,28515
5ee667342eebe93d1db38dd0,ma_choice_v4_observers_real1,5ee667342eebe93d1db38dd0,7,Amount of traffic,75,,,wad_att_rating,3601,,,,,2022-06-21 15:52:53,28516
5ee667342eebe93d1db38dd0,ma_choice_v4_observers_real1,5ee667342eebe93d1db38dd0,5,Quality of kitchen,50,,,wad_att_rating,2210,,,,,2022-06-21 15:52:55,28517
5ee667342eebe93d1db38dd0,ma_choice_v4_observers_real1,5ee667342eebe93d1db38dd0,3,Year building was built,50,,,wad_att_rating,3385,,,,,2022-06-21 15:52:58,28518
5f36cce4f707260f387cf43c,ma_choice_v4_observers_real1,5f36cce4f707260f387cf43c,8,Size of home,-1,1800 square feet,600 square feet,direction,2600,,,,,2022-06-21 15:56:25,28519
5f36cce4f707260f387cf43c,ma_choice_v4_observers_real1,5f36cce4f707260f387cf43c,6,Quality of heat/AC system,-1,Very Good,Very Bad,direction,1657,,,,,2022-06-21 15:56:30,28520
5f36cce4f707260f387cf43c,ma_choice_v4_observers_real1,5f36cce4f707260f387cf43c,5,Quality of kitchen,-1,Very Good,Very Bad,direction,1279,,,,,2022-06-21 15:56:33,28521
5f36cce4f707260f387cf43c,ma_choice_v4_observers_real1,5f36cce4f707260f387cf43c,3,Year building was built,-1,1985,1985,direction,1200,,,,,2022-06-21 15:56:39,28522
5f36cce4f707260f387cf43c,ma_choice_v4_observers_real1,5f36cce4f707260f387cf43c,7,Amount of traffic,-1,Very Little,A Lot,direction,1184,,,,,2022-06-21 15:56:43,28523
5f36cce4f707260f387cf43c,ma_choice_v4_observers_real1,5f36cce4f707260f387cf43c,0,Closeness to parks,-1,10 min away,30 min away,direction,1200,,,,,2022-06-21 15:56:48,28524
5f36cce4f707260f387cf43c,ma_choice_v4_observers_real1,5f36cce4f707260f387cf43c,1,Noise pollution,-1,Very Low,Very High,direction,2826,,,,,2022-06-21 15:56:53,28525
5f36cce4f707260f387cf43c,ma_choice_v4_observers_real1,5f36cce4f707260f387cf43c,2,Reputation of closest school,-1,Very Good,Very Bad,direction,1294,,,,,2022-06-21 15:56:57,28526
5f36cce4f707260f387cf43c,ma_choice_v4_observers_real1,5f36cce4f707260f387cf43c,4,Size of yard,-1,600 square feet,0 square feet,direction,1793,,,,,2022-06-21 15:57:01,28527
5ee667342eebe93d1db38dd0,ma_choice_v4_observers_real1,5ee667342eebe93d1db38dd0,3,Year building was built,-1,1985,1950,direction,3472,,,,,2022-06-21 15:58:00,28528
5ee667342eebe93d1db38dd0,ma_choice_v4_observers_real1,5ee667342eebe93d1db38dd0,5,Quality of kitchen,-1,Good,Very Bad,direction,2064,,,,,2022-06-21 15:58:11,28529
5ee667342eebe93d1db38dd0,ma_choice_v4_observers_real1,5ee667342eebe93d1db38dd0,4,Size of yard,-1,300 square feet,0 square feet,direction,2635,,,,,2022-06-21 15:58:16,28530
5ee667342eebe93d1db38dd0,ma_choice_v4_observers_real1,5ee667342eebe93d1db38dd0,8,Size of home,-1,1800 square feet,600 square feet,direction,2427,,,,,2022-06-21 15:58:23,28531
5ee667342eebe93d1db38dd0,ma_choice_v4_observers_real1,5ee667342eebe93d1db38dd0,7,Amount of traffic,-1,A Moderate Amount,Very Little,direction,1667,,,,,2022-06-21 15:58:31,28532
5ee667342eebe93d1db38dd0,ma_choice_v4_observers_real1,5ee667342eebe93d1db38dd0,6,Quality of heat/AC system,-1,Very Good,Very Bad,direction,780,,,,,2022-06-21 15:58:35,28533
5ee667342eebe93d1db38dd0,ma_choice_v4_observers_real1,5ee667342eebe93d1db38dd0,0,Closeness to parks,-1,15 min away,25 min away,direction,4631,,,,,2022-06-21 15:58:46,28534
5ee667342eebe93d1db38dd0,ma_choice_v4_observers_real1,5ee667342eebe93d1db38dd0,2,Reputation of closest school,-1,Good,Very Bad,direction,1389,,,,,2022-06-21 15:58:55,28535
5ee667342eebe93d1db38dd0,ma_choice_v4_observers_real1,5ee667342eebe93d1db38dd0,1,Noise pollution,-1,Very Low,Very High,direction,1713,,,,,2022-06-21 15:59:01,28536
60fed7a3e26a26e08d04fbe3,ma_choice_v4_observers_real1,60fed7a3e26a26e08d04fbe3,0,Quality of heat/AC system,1,,,lex_att_rating,5671,,,,,2022-06-21 16:00:49,28537
60fed7a3e26a26e08d04fbe3,ma_choice_v4_observers_real1,60fed7a3e26a26e08d04fbe3,5,Quality of kitchen,88,,,wad_att_rating,8298,,,,,2022-06-21 16:00:59,28538
60fed7a3e26a26e08d04fbe3,ma_choice_v4_observers_real1,60fed7a3e26a26e08d04fbe3,2,Reputation of closest school,67,,,wad_att_rating,6343,,,,,2022-06-21 16:01:05,28539
60fed7a3e26a26e08d04fbe3,ma_choice_v4_observers_real1,60fed7a3e26a26e08d04fbe3,7,Amount of traffic,49,,,wad_att_rating,6156,,,,,2022-06-21 16:01:12,28540
60fed7a3e26a26e08d04fbe3,ma_choice_v4_observers_real1,60fed7a3e26a26e08d04fbe3,0,Closeness to parks,74,,,wad_att_rating,4831,,,,,2022-06-21 16:01:16,28541
60fed7a3e26a26e08d04fbe3,ma_choice_v4_observers_real1,60fed7a3e26a26e08d04fbe3,8,Size of home,30,,,wad_att_rating,3787,,,,,2022-06-21 16:01:20,28542
60fed7a3e26a26e08d04fbe3,ma_choice_v4_observers_real1,60fed7a3e26a26e08d04fbe3,4,Size of yard,25,,,wad_att_rating,2766,,,,,2022-06-21 16:01:23,28543
60fed7a3e26a26e08d04fbe3,ma_choice_v4_observers_real1,60fed7a3e26a26e08d04fbe3,1,Noise pollution,14,,,wad_att_rating,13596,,,,,2022-06-21 16:01:37,28544
60fed7a3e26a26e08d04fbe3,ma_choice_v4_observers_real1,60fed7a3e26a26e08d04fbe3,6,Quality of heat/AC system,98,,,wad_att_rating,9487,,,,,2022-06-21 16:01:46,28545
60fed7a3e26a26e08d04fbe3,ma_choice_v4_observers_real1,60fed7a3e26a26e08d04fbe3,3,Year building was built,19,,,wad_att_rating,3476,,,,,2022-06-21 16:01:50,28546
60fed7a3e26a26e08d04fbe3,ma_choice_v4_observers_real1,60fed7a3e26a26e08d04fbe3,0,Quality of heat/AC system,1,,,ew_att_rating,6703,,,,,2022-06-21 16:02:00,28547
60fed7a3e26a26e08d04fbe3,ma_choice_v4_observers_real1,60fed7a3e26a26e08d04fbe3,0,Reputation of closest school,1,,,ew_att_rating,6703,,,,,2022-06-21 16:02:00,28548
60fed7a3e26a26e08d04fbe3,ma_choice_v4_observers_real1,60fed7a3e26a26e08d04fbe3,0,Closeness to parks,1,,,ew_att_rating,6703,,,,,2022-06-21 16:02:00,28549
60fed7a3e26a26e08d04fbe3,ma_choice_v4_observers_real1,60fed7a3e26a26e08d04fbe3,0,Quality of kitchen,1,,,ew_att_rating,6703,,,,,2022-06-21 16:02:00,28550
60fed7a3e26a26e08d04fbe3,ma_choice_v4_observers_real1,60fed7a3e26a26e08d04fbe3,7,Amount of traffic,-1,Very Little,A Lot,direction,2903,,,,,2022-06-21 16:05:47,28551
60fed7a3e26a26e08d04fbe3,ma_choice_v4_observers_real1,60fed7a3e26a26e08d04fbe3,0,Closeness to parks,-1,15 min away,30 min away,direction,3020,,,,,2022-06-21 16:05:55,28552
60fed7a3e26a26e08d04fbe3,ma_choice_v4_observers_real1,60fed7a3e26a26e08d04fbe3,1,Noise pollution,-1,Very Low,Very High,direction,2481,,,,,2022-06-21 16:06:03,28553
60fed7a3e26a26e08d04fbe3,ma_choice_v4_observers_real1,60fed7a3e26a26e08d04fbe3,4,Size of yard,-1,600 square feet,0 square feet,direction,3048,,,,,2022-06-21 16:06:11,28554
60fed7a3e26a26e08d04fbe3,ma_choice_v4_observers_real1,60fed7a3e26a26e08d04fbe3,3,Year building was built,-1,2020,1950,direction,1600,,,,,2022-06-21 16:06:17,28555
60fed7a3e26a26e08d04fbe3,ma_choice_v4_observers_real1,60fed7a3e26a26e08d04fbe3,8,Size of home,-1,1800 square feet,600 square feet,direction,2623,,,,,2022-06-21 16:06:23,28556
60fed7a3e26a26e08d04fbe3,ma_choice_v4_observers_real1,60fed7a3e26a26e08d04fbe3,6,Quality of heat/AC system,-1,Very Good,Very Bad,direction,1603,,,,,2022-06-21 16:06:27,28557
60fed7a3e26a26e08d04fbe3,ma_choice_v4_observers_real1,60fed7a3e26a26e08d04fbe3,2,Reputation of closest school,-1,Very Good,Very Bad,direction,2879,,,,,2022-06-21 16:06:32,28558
60fed7a3e26a26e08d04fbe3,ma_choice_v4_observers_real1,60fed7a3e26a26e08d04fbe3,5,Quality of kitchen,-1,Very Good,Very Bad,direction,1848,,,,,2022-06-21 16:06:35,28559
60d79091b5af3686cb75f026,ma_choice_v4_observers_real1,60d79091b5af3686cb75f026,7,Amount of traffic,30,,,wad_att_rating,3507,,,,,2022-06-21 16:07:00,28560
60d79091b5af3686cb75f026,ma_choice_v4_observers_real1,60d79091b5af3686cb75f026,2,Reputation of closest school,14,,,wad_att_rating,4312,,,,,2022-06-21 16:07:04,28561
60d79091b5af3686cb75f026,ma_choice_v4_observers_real1,60d79091b5af3686cb75f026,6,Quality of heat/AC system,15,,,wad_att_rating,3374,,,,,2022-06-21 16:07:08,28562
60d79091b5af3686cb75f026,ma_choice_v4_observers_real1,60d79091b5af3686cb75f026,3,Year building was built,94,,,wad_att_rating,4207,,,,,2022-06-21 16:07:12,28563
60d79091b5af3686cb75f026,ma_choice_v4_observers_real1,60d79091b5af3686cb75f026,8,Size of home,37,,,wad_att_rating,3437,,,,,2022-06-21 16:07:15,28564
60d79091b5af3686cb75f026,ma_choice_v4_observers_real1,60d79091b5af3686cb75f026,4,Size of yard,36,,,wad_att_rating,2573,,,,,2022-06-21 16:07:18,28565
60d79091b5af3686cb75f026,ma_choice_v4_observers_real1,60d79091b5af3686cb75f026,5,Quality of kitchen,12,,,wad_att_rating,4613,,,,,2022-06-21 16:07:23,28566
60d79091b5af3686cb75f026,ma_choice_v4_observers_real1,60d79091b5af3686cb75f026,0,Closeness to parks,52,,,wad_att_rating,3410,,,,,2022-06-21 16:07:26,28567
60d79091b5af3686cb75f026,ma_choice_v4_observers_real1,60d79091b5af3686cb75f026,1,Noise pollution,13,,,wad_att_rating,3939,,,,,2022-06-21 16:07:30,28568
60d79091b5af3686cb75f026,ma_choice_v4_observers_real1,60d79091b5af3686cb75f026,0,Year building was built,1,,,lex_att_rating,4260,,,,,2022-06-21 16:07:38,28569
60d79091b5af3686cb75f026,ma_choice_v4_observers_real1,60d79091b5af3686cb75f026,0,Closeness to parks,1,,,ew_att_rating,7321,,,,,2022-06-21 16:07:50,28570
60d79091b5af3686cb75f026,ma_choice_v4_observers_real1,60d79091b5af3686cb75f026,0,Year building was built,1,,,ew_att_rating,7321,,,,,2022-06-21 16:07:50,28571
6159d4026fd4e22c9f1179c1,ma_choice_v4_observers_real1,6159d4026fd4e22c9f1179c1,5,Quality of kitchen,75,,,wad_att_rating,5144,,,,,2022-06-21 16:08:29,28572
6159d4026fd4e22c9f1179c1,ma_choice_v4_observers_real1,6159d4026fd4e22c9f1179c1,7,Amount of traffic,13,,,wad_att_rating,4613,,,,,2022-06-21 16:08:33,28573
6159d4026fd4e22c9f1179c1,ma_choice_v4_observers_real1,6159d4026fd4e22c9f1179c1,8,Size of home,50,,,wad_att_rating,3022,,,,,2022-06-21 16:08:36,28574
6159d4026fd4e22c9f1179c1,ma_choice_v4_observers_real1,6159d4026fd4e22c9f1179c1,6,Quality of heat/AC system,86,,,wad_att_rating,3826,,,,,2022-06-21 16:08:40,28575
60d79091b5af3686cb75f026,ma_choice_v4_observers_real1,60d79091b5af3686cb75f026,3,Year building was built,-1,2020,1950,direction,1688,,,,,2022-06-21 16:08:42,28576
6159d4026fd4e22c9f1179c1,ma_choice_v4_observers_real1,6159d4026fd4e22c9f1179c1,0,Closeness to parks,13,,,wad_att_rating,3381,,,,,2022-06-21 16:08:44,28577
6159d4026fd4e22c9f1179c1,ma_choice_v4_observers_real1,6159d4026fd4e22c9f1179c1,2,Reputation of closest school,0,,,wad_att_rating,2844,,,,,2022-06-21 16:08:46,28578
60d79091b5af3686cb75f026,ma_choice_v4_observers_real1,60d79091b5af3686cb75f026,6,Quality of heat/AC system,-1,Good,Very Bad,direction,1765,,,,,2022-06-21 16:08:47,28579
6159d4026fd4e22c9f1179c1,ma_choice_v4_observers_real1,6159d4026fd4e22c9f1179c1,1,Noise pollution,0,,,wad_att_rating,4454,,,,,2022-06-21 16:08:51,28580
6159d4026fd4e22c9f1179c1,ma_choice_v4_observers_real1,6159d4026fd4e22c9f1179c1,4,Size of yard,25,,,wad_att_rating,3881,,,,,2022-06-21 16:08:55,28581
60d79091b5af3686cb75f026,ma_choice_v4_observers_real1,60d79091b5af3686cb75f026,2,Reputation of closest school,-1,Moderate,Very Bad,direction,2859,,,,,2022-06-21 16:08:55,28582
6159d4026fd4e22c9f1179c1,ma_choice_v4_observers_real1,6159d4026fd4e22c9f1179c1,3,Year building was built,0,,,wad_att_rating,2715,,,,,2022-06-21 16:08:57,28583
60d79091b5af3686cb75f026,ma_choice_v4_observers_real1,60d79091b5af3686cb75f026,1,Noise pollution,-1,Very Low,Very High,direction,1324,,,,,2022-06-21 16:09:00,28584
60d79091b5af3686cb75f026,ma_choice_v4_observers_real1,60d79091b5af3686cb75f026,7,Amount of traffic,-1,Very Little,A Lot,direction,1314,,,,,2022-06-21 16:09:05,28585
6159d4026fd4e22c9f1179c1,ma_choice_v4_observers_real1,6159d4026fd4e22c9f1179c1,0,Quality of heat/AC system,1,,,lex_att_rating,2996,,,,,2022-06-21 16:09:06,28586
60d79091b5af3686cb75f026,ma_choice_v4_observers_real1,60d79091b5af3686cb75f026,0,Closeness to parks,-1,15 min away,30 min away,direction,2413,,,,,2022-06-21 16:09:10,28587
60d79091b5af3686cb75f026,ma_choice_v4_observers_real1,60d79091b5af3686cb75f026,5,Quality of kitchen,-1,Moderate,Very Bad,direction,1472,,,,,2022-06-21 16:09:13,28588
60d79091b5af3686cb75f026,ma_choice_v4_observers_real1,60d79091b5af3686cb75f026,4,Size of yard,-1,600 square feet,0 square feet,direction,1811,,,,,2022-06-21 16:09:18,28589
60d79091b5af3686cb75f026,ma_choice_v4_observers_real1,60d79091b5af3686cb75f026,8,Size of home,-1,1800 square feet,600 square feet,direction,1184,,,,,2022-06-21 16:09:21,28590
6159d4026fd4e22c9f1179c1,ma_choice_v4_observers_real1,6159d4026fd4e22c9f1179c1,0,Quality of kitchen,1,,,ew_att_rating,15698,,,,,2022-06-21 16:09:28,28591
6159d4026fd4e22c9f1179c1,ma_choice_v4_observers_real1,6159d4026fd4e22c9f1179c1,0,Size of home,1,,,ew_att_rating,15698,,,,,2022-06-21 16:09:28,28592
6159d4026fd4e22c9f1179c1,ma_choice_v4_observers_real1,6159d4026fd4e22c9f1179c1,0,Quality of heat/AC system,1,,,ew_att_rating,15698,,,,,2022-06-21 16:09:28,28593
6159d4026fd4e22c9f1179c1,ma_choice_v4_observers_real1,6159d4026fd4e22c9f1179c1,2,Reputation of closest school,-1,Moderate,Very Bad,direction,9105,,,,,2022-06-21 16:10:15,28594
6159d4026fd4e22c9f1179c1,ma_choice_v4_observers_real1,6159d4026fd4e22c9f1179c1,5,Quality of kitchen,-1,Very Good,Very Bad,direction,2725,,,,,2022-06-21 16:10:21,28595
6159d4026fd4e22c9f1179c1,ma_choice_v4_observers_real1,6159d4026fd4e22c9f1179c1,1,Noise pollution,-1,Low,Very High,direction,2869,,,,,2022-06-21 16:10:28,28596
6159d4026fd4e22c9f1179c1,ma_choice_v4_observers_real1,6159d4026fd4e22c9f1179c1,3,Year building was built,-1,1985,2020,direction,3637,,,,,2022-06-21 16:10:37,28597
6159d4026fd4e22c9f1179c1,ma_choice_v4_observers_real1,6159d4026fd4e22c9f1179c1,8,Size of home,-1,1200 square feet,600 square feet,direction,1990,,,,,2022-06-21 16:10:46,28598
6159d4026fd4e22c9f1179c1,ma_choice_v4_observers_real1,6159d4026fd4e22c9f1179c1,7,Amount of traffic,-1,A Little,A Lot,direction,2696,,,,,2022-06-21 16:10:52,28599
6159d4026fd4e22c9f1179c1,ma_choice_v4_observers_real1,6159d4026fd4e22c9f1179c1,6,Quality of heat/AC system,-1,Very Good,Very Bad,direction,1630,,,,,2022-06-21 16:10:56,28600
6159d4026fd4e22c9f1179c1,ma_choice_v4_observers_real1,6159d4026fd4e22c9f1179c1,4,Size of yard,-1,300 square feet,0 square feet,direction,1703,,,,,2022-06-21 16:11:00,28601
6159d4026fd4e22c9f1179c1,ma_choice_v4_observers_real1,6159d4026fd4e22c9f1179c1,0,Closeness to parks,-1,20 min away,25 min away,direction,2029,,,,,2022-06-21 16:11:06,28602
5a2170527413810001521c19,ma_choice_v4_observers_real1,5a2170527413810001521c19,0,Noise pollution,1,,,lex_att_rating,5483,,,,,2022-06-21 16:17:42,28603
62a0f7db18a72f2654996af3,ma_choice_v4_observers_real1,62a0f7db18a72f2654996af3,0,Noise pollution,1,,,ew_att_rating,6933,,,,,2022-06-21 16:17:59,28604
5a2170527413810001521c19,ma_choice_v4_observers_real1,5a2170527413810001521c19,7,Amount of traffic,62,,,wad_att_rating,12169,,,,,2022-06-21 16:18:00,28605
5a2170527413810001521c19,ma_choice_v4_observers_real1,5a2170527413810001521c19,4,Size of yard,60,,,wad_att_rating,8868,,,,,2022-06-21 16:18:09,28606
5a2170527413810001521c19,ma_choice_v4_observers_real1,5a2170527413810001521c19,3,Year building was built,48,,,wad_att_rating,7983,,,,,2022-06-21 16:18:17,28607
5a2170527413810001521c19,ma_choice_v4_observers_real1,5a2170527413810001521c19,1,Noise pollution,91,,,wad_att_rating,10198,,,,,2022-06-21 16:18:27,28608
62a0f7db18a72f2654996af3,ma_choice_v4_observers_real1,62a0f7db18a72f2654996af3,3,Year building was built,0,,,wad_att_rating,7219,,,,,2022-06-21 16:18:31,28609
62b0d24d95bc72be2f45c720,ma_choice_v4_observers_real1,62b0d24d95bc72be2f45c720,7,Amount of traffic,25,,,wad_att_rating,3431,,,,,2022-06-21 16:18:32,28610
5a2170527413810001521c19,ma_choice_v4_observers_real1,5a2170527413810001521c19,5,Quality of kitchen,20,,,wad_att_rating,4729,,,,,2022-06-21 16:18:32,28611
62a0f7db18a72f2654996af3,ma_choice_v4_observers_real1,62a0f7db18a72f2654996af3,4,Size of yard,0,,,wad_att_rating,4534,,,,,2022-06-21 16:18:35,28612
62b0d24d95bc72be2f45c720,ma_choice_v4_observers_real1,62b0d24d95bc72be2f45c720,0,Closeness to parks,0,,,wad_att_rating,4295,,,,,2022-06-21 16:18:36,28613
5a2170527413810001521c19,ma_choice_v4_observers_real1,5a2170527413810001521c19,0,Closeness to parks,56,,,wad_att_rating,5666,,,,,2022-06-21 16:18:37,28614
62b0d24d95bc72be2f45c720,ma_choice_v4_observers_real1,62b0d24d95bc72be2f45c720,1,Noise pollution,12,,,wad_att_rating,2799,,,,,2022-06-21 16:18:39,28615
62a0f7db18a72f2654996af3,ma_choice_v4_observers_real1,62a0f7db18a72f2654996af3,1,Noise pollution,100,,,wad_att_rating,4959,,,,,2022-06-21 16:18:40,28616
5a2170527413810001521c19,ma_choice_v4_observers_real1,5a2170527413810001521c19,6,Quality of heat/AC system,11,,,wad_att_rating,4096,,,,,2022-06-21 16:18:42,28617
62b0d24d95bc72be2f45c720,ma_choice_v4_observers_real1,62b0d24d95bc72be2f45c720,5,Quality of kitchen,99,,,wad_att_rating,4103,,,,,2022-06-21 16:18:43,28618
5a2170527413810001521c19,ma_choice_v4_observers_real1,5a2170527413810001521c19,2,Reputation of closest school,12,,,wad_att_rating,4740,,,,,2022-06-21 16:18:46,28619
62a0f7db18a72f2654996af3,ma_choice_v4_observers_real1,62a0f7db18a72f2654996af3,7,Amount of traffic,0,,,wad_att_rating,6775,,,,,2022-06-21 16:18:47,28620
62b0d24d95bc72be2f45c720,ma_choice_v4_observers_real1,62b0d24d95bc72be2f45c720,6,Quality of heat/AC system,50,,,wad_att_rating,6455,,,,,2022-06-21 16:18:50,28621
62a0f7db18a72f2654996af3,ma_choice_v4_observers_real1,62a0f7db18a72f2654996af3,8,Size of home,0,,,wad_att_rating,3858,,,,,2022-06-21 16:18:51,28622
5a2170527413810001521c19,ma_choice_v4_observers_real1,5a2170527413810001521c19,8,Size of home,24,,,wad_att_rating,4935,,,,,2022-06-21 16:18:51,28623
62b0d24d95bc72be2f45c720,ma_choice_v4_observers_real1,62b0d24d95bc72be2f45c720,3,Year building was built,0,,,wad_att_rating,3431,,,,,2022-06-21 16:18:53,28624
62a0f7db18a72f2654996af3,ma_choice_v4_observers_real1,62a0f7db18a72f2654996af3,0,Closeness to parks,0,,,wad_att_rating,4039,,,,,2022-06-21 16:18:55,28625
62b0d24d95bc72be2f45c720,ma_choice_v4_observers_real1,62b0d24d95bc72be2f45c720,2,Reputation of closest school,0,,,wad_att_rating,2439,,,,,2022-06-21 16:18:55,28626
62b0d24d95bc72be2f45c720,ma_choice_v4_observers_real1,62b0d24d95bc72be2f45c720,8,Size of home,50,,,wad_att_rating,2647,,,,,2022-06-21 16:18:58,28627
62a0f7db18a72f2654996af3,ma_choice_v4_observers_real1,62a0f7db18a72f2654996af3,6,Quality of heat/AC system,0,,,wad_att_rating,4101,,,,,2022-06-21 16:18:59,28628
62b0d24d95bc72be2f45c720,ma_choice_v4_observers_real1,62b0d24d95bc72be2f45c720,4,Size of yard,62,,,wad_att_rating,4207,,,,,2022-06-21 16:19:02,28629
62a0f7db18a72f2654996af3,ma_choice_v4_observers_real1,62a0f7db18a72f2654996af3,5,Quality of kitchen,0,,,wad_att_rating,5022,,,,,2022-06-21 16:19:04,28630
62a0f7db18a72f2654996af3,ma_choice_v4_observers_real1,62a0f7db18a72f2654996af3,2,Reputation of closest school,0,,,wad_att_rating,4873,,,,,2022-06-21 16:19:09,28631
5a2170527413810001521c19,ma_choice_v4_observers_real1,5a2170527413810001521c19,0,Closeness to parks,1,,,ew_att_rating,20275,,,,,2022-06-21 16:19:20,28632
5a2170527413810001521c19,ma_choice_v4_observers_real1,5a2170527413810001521c19,0,Size of yard,1,,,ew_att_rating,20275,,,,,2022-06-21 16:19:20,28633
5a2170527413810001521c19,ma_choice_v4_observers_real1,5a2170527413810001521c19,0,Noise pollution,1,,,ew_att_rating,20275,,,,,2022-06-21 16:19:20,28634
5a2170527413810001521c19,ma_choice_v4_observers_real1,5a2170527413810001521c19,0,Amount of traffic,1,,,ew_att_rating,20275,,,,,2022-06-21 16:19:20,28635
62a0f7db18a72f2654996af3,ma_choice_v4_observers_real1,62a0f7db18a72f2654996af3,0,Noise pollution,1,,,lex_att_rating,6271,,,,,2022-06-21 16:19:25,28636
62b0d24d95bc72be2f45c720,ma_choice_v4_observers_real1,62b0d24d95bc72be2f45c720,0,Quality of kitchen,1,,,ew_att_rating,13022,,,,,2022-06-21 16:19:26,28637
62b0d24d95bc72be2f45c720,ma_choice_v4_observers_real1,62b0d24d95bc72be2f45c720,0,Quality of heat/AC system,1,,,ew_att_rating,13022,,,,,2022-06-21 16:19:26,28638
62b0d24d95bc72be2f45c720,ma_choice_v4_observers_real1,62b0d24d95bc72be2f45c720,0,Size of home,1,,,ew_att_rating,13022,,,,,2022-06-21 16:19:26,28639
62b0d24d95bc72be2f45c720,ma_choice_v4_observers_real1,62b0d24d95bc72be2f45c720,0,Size of yard,1,,,ew_att_rating,13022,,,,,2022-06-21 16:19:26,28640
62b0d24d95bc72be2f45c720,ma_choice_v4_observers_real1,62b0d24d95bc72be2f45c720,0,Quality of kitchen,1,,,lex_att_rating,2943,,,,,2022-06-21 16:19:40,28641
5a2170527413810001521c19,ma_choice_v4_observers_real1,5a2170527413810001521c19,0,Closeness to parks,-1,10 min away,30 min away,direction,7145,,,,,2022-06-21 16:20:43,28642
5a2170527413810001521c19,ma_choice_v4_observers_real1,5a2170527413810001521c19,4,Size of yard,-1,0 square feet,600 square feet,direction,2707,,,,,2022-06-21 16:20:51,28643
5a2170527413810001521c19,ma_choice_v4_observers_real1,5a2170527413810001521c19,8,Size of home,-1,1200 square feet,1800 square feet,direction,2395,,,,,2022-06-21 16:20:59,28644
62b0d24d95bc72be2f45c720,ma_choice_v4_observers_real1,62b0d24d95bc72be2f45c720,2,Reputation of closest school,-1,Very Good,Very Bad,direction,4871,,,,,2022-06-21 16:20:59,28645
62b0d24d95bc72be2f45c720,ma_choice_v4_observers_real1,62b0d24d95bc72be2f45c720,8,Size of home,-1,1800 square feet,600 square feet,direction,1359,,,,,2022-06-21 16:21:03,28646
62b0d24d95bc72be2f45c720,ma_choice_v4_observers_real1,62b0d24d95bc72be2f45c720,3,Year building was built,-1,2020,1950,direction,935,,,,,2022-06-21 16:21:11,28647
5a2170527413810001521c19,ma_choice_v4_observers_real1,5a2170527413810001521c19,6,Quality of heat/AC system,-1,Good,Very Bad,direction,2731,,,,,2022-06-21 16:21:14,28648
62b0d24d95bc72be2f45c720,ma_choice_v4_observers_real1,62b0d24d95bc72be2f45c720,1,Noise pollution,-1,Very Low,Very High,direction,1607,,,,,2022-06-21 16:21:17,28649
62b0d24d95bc72be2f45c720,ma_choice_v4_observers_real1,62b0d24d95bc72be2f45c720,6,Quality of heat/AC system,-1,Very Good,Very Bad,direction,999,,,,,2022-06-21 16:21:20,28650
62b0d24d95bc72be2f45c720,ma_choice_v4_observers_real1,62b0d24d95bc72be2f45c720,7,Amount of traffic,-1,Very Little,A Lot,direction,991,,,,,2022-06-21 16:21:23,28651
5a2170527413810001521c19,ma_choice_v4_observers_real1,5a2170527413810001521c19,3,Year building was built,-1,2020,1950,direction,2177,,,,,2022-06-21 16:21:24,28652
62b0d24d95bc72be2f45c720,ma_choice_v4_observers_real1,62b0d24d95bc72be2f45c720,5,Quality of kitchen,-1,Very Good,Very Bad,direction,1111,,,,,2022-06-21 16:21:26,28653
62b0d24d95bc72be2f45c720,ma_choice_v4_observers_real1,62b0d24d95bc72be2f45c720,4,Size of yard,-1,600 square feet,0 square feet,direction,1415,,,,,2022-06-21 16:21:29,28654
62b0d24d95bc72be2f45c720,ma_choice_v4_observers_real1,62b0d24d95bc72be2f45c720,0,Closeness to parks,-1,10 min away,30 min away,direction,1223,,,,,2022-06-21 16:21:32,28655
5a2170527413810001521c19,ma_choice_v4_observers_real1,5a2170527413810001521c19,2,Reputation of closest school,-1,Good,Very Bad,direction,4403,,,,,2022-06-21 16:21:34,28656
5a2170527413810001521c19,ma_choice_v4_observers_real1,5a2170527413810001521c19,1,Noise pollution,-1,Very Low,Very High,direction,2926,,,,,2022-06-21 16:21:42,28657
5a2170527413810001521c19,ma_choice_v4_observers_real1,5a2170527413810001521c19,5,Quality of kitchen,-1,Very Good,Very Bad,direction,2599,,,,,2022-06-21 16:21:52,28658
5a2170527413810001521c19,ma_choice_v4_observers_real1,5a2170527413810001521c19,7,Amount of traffic,-1,Very Little,A Lot,direction,2423,,,,,2022-06-21 16:22:04,28659
62a0f7db18a72f2654996af3,ma_choice_v4_observers_real1,62a0f7db18a72f2654996af3,3,Year building was built,-1,2020,1950,direction,6267,,,,,2022-06-21 16:22:15,28660
62a0f7db18a72f2654996af3,ma_choice_v4_observers_real1,62a0f7db18a72f2654996af3,5,Quality of kitchen,-1,Very Good,Very Bad,direction,4015,,,,,2022-06-21 16:22:34,28661
62a0f7db18a72f2654996af3,ma_choice_v4_observers_real1,62a0f7db18a72f2654996af3,1,Noise pollution,-1,Very Low,Very High,direction,3648,,,,,2022-06-21 16:22:51,28662
62a0f7db18a72f2654996af3,ma_choice_v4_observers_real1,62a0f7db18a72f2654996af3,2,Reputation of closest school,-1,Very Good,Very Bad,direction,4117,,,,,2022-06-21 16:23:03,28663
62a0f7db18a72f2654996af3,ma_choice_v4_observers_real1,62a0f7db18a72f2654996af3,4,Size of yard,-1,600 square feet,0 square feet,direction,3531,,,,,2022-06-21 16:23:16,28664
62a0f7db18a72f2654996af3,ma_choice_v4_observers_real1,62a0f7db18a72f2654996af3,6,Quality of heat/AC system,-1,Very Good,Very Bad,direction,4815,,,,,2022-06-21 16:23:28,28665
62a0f7db18a72f2654996af3,ma_choice_v4_observers_real1,62a0f7db18a72f2654996af3,0,Closeness to parks,-1,10 min away,30 min away,direction,3077,,,,,2022-06-21 16:23:41,28666
62a0f7db18a72f2654996af3,ma_choice_v4_observers_real1,62a0f7db18a72f2654996af3,8,Size of home,-1,1800 square feet,600 square feet,direction,4130,,,,,2022-06-21 16:23:54,28667
62a0f7db18a72f2654996af3,ma_choice_v4_observers_real1,62a0f7db18a72f2654996af3,7,Amount of traffic,-1,Very Little,A Lot,direction,3200,,,,,2022-06-21 16:24:07,28668
60e792f25e9ab875f9605cf5,ma_choice_v4_observers_real1,60e792f25e9ab875f9605cf5,0,Size of home,1,,,ew_att_rating,13673,,,,,2022-06-21 16:25:04,28669
60e792f25e9ab875f9605cf5,ma_choice_v4_observers_real1,60e792f25e9ab875f9605cf5,0,Year building was built,1,,,ew_att_rating,13673,,,,,2022-06-21 16:25:04,28670
60e792f25e9ab875f9605cf5,ma_choice_v4_observers_real1,60e792f25e9ab875f9605cf5,0,Reputation of closest school,1,,,ew_att_rating,13673,,,,,2022-06-21 16:25:04,28671
60e792f25e9ab875f9605cf5,ma_choice_v4_observers_real1,60e792f25e9ab875f9605cf5,0,Reputation of closest school,1,,,lex_att_rating,3394,,,,,2022-06-21 16:25:11,28672
601db2e563979b1a6aac8401,ma_choice_v4_observers_real1,601db2e563979b1a6aac8401,0,Quality of heat/AC system,1,,,lex_att_rating,5458,,,,,2022-06-21 16:25:12,28673
60e792f25e9ab875f9605cf5,ma_choice_v4_observers_real1,60e792f25e9ab875f9605cf5,8,Size of home,44,,,wad_att_rating,5755,,,,,2022-06-21 16:25:20,28674
60e792f25e9ab875f9605cf5,ma_choice_v4_observers_real1,60e792f25e9ab875f9605cf5,5,Quality of kitchen,0,,,wad_att_rating,2100,,,,,2022-06-21 16:25:22,28675
60e792f25e9ab875f9605cf5,ma_choice_v4_observers_real1,60e792f25e9ab875f9605cf5,2,Reputation of closest school,83,,,wad_att_rating,4012,,,,,2022-06-21 16:25:26,28676
601db2e563979b1a6aac8401,ma_choice_v4_observers_real1,601db2e563979b1a6aac8401,4,Size of yard,0,,,wad_att_rating,4685,,,,,2022-06-21 16:25:26,28677
60e792f25e9ab875f9605cf5,ma_choice_v4_observers_real1,60e792f25e9ab875f9605cf5,4,Size of yard,7,,,wad_att_rating,2462,,,,,2022-06-21 16:25:28,28678
60e792f25e9ab875f9605cf5,ma_choice_v4_observers_real1,60e792f25e9ab875f9605cf5,7,Amount of traffic,3,,,wad_att_rating,2764,,,,,2022-06-21 16:25:31,28679
60e792f25e9ab875f9605cf5,ma_choice_v4_observers_real1,60e792f25e9ab875f9605cf5,3,Year building was built,40,,,wad_att_rating,2732,,,,,2022-06-21 16:25:34,28680
601db2e563979b1a6aac8401,ma_choice_v4_observers_real1,601db2e563979b1a6aac8401,1,Noise pollution,45,,,wad_att_rating,8216,,,,,2022-06-21 16:25:34,28681
60e792f25e9ab875f9605cf5,ma_choice_v4_observers_real1,60e792f25e9ab875f9605cf5,0,Closeness to parks,2,,,wad_att_rating,2943,,,,,2022-06-21 16:25:37,28682
601db2e563979b1a6aac8401,ma_choice_v4_observers_real1,601db2e563979b1a6aac8401,2,Reputation of closest school,2,,,wad_att_rating,6026,,,,,2022-06-21 16:25:40,28683
601db2e563979b1a6aac8401,ma_choice_v4_observers_real1,601db2e563979b1a6aac8401,8,Size of home,26,,,wad_att_rating,5509,,,,,2022-06-21 16:25:46,28684
60e792f25e9ab875f9605cf5,ma_choice_v4_observers_real1,60e792f25e9ab875f9605cf5,1,Noise pollution,3,,,wad_att_rating,7058,,,,,2022-06-21 16:25:46,28685
60e792f25e9ab875f9605cf5,ma_choice_v4_observers_real1,60e792f25e9ab875f9605cf5,6,Quality of heat/AC system,2,,,wad_att_rating,2844,,,,,2022-06-21 16:25:47,28686
601db2e563979b1a6aac8401,ma_choice_v4_observers_real1,601db2e563979b1a6aac8401,5,Quality of kitchen,24,,,wad_att_rating,4635,,,,,2022-06-21 16:25:50,28687
601db2e563979b1a6aac8401,ma_choice_v4_observers_real1,601db2e563979b1a6aac8401,0,Closeness to parks,11,,,wad_att_rating,4389,,,,,2022-06-21 16:25:55,28688
601db2e563979b1a6aac8401,ma_choice_v4_observers_real1,601db2e563979b1a6aac8401,3,Year building was built,0,,,wad_att_rating,5644,,,,,2022-06-21 16:26:00,28689
601db2e563979b1a6aac8401,ma_choice_v4_observers_real1,601db2e563979b1a6aac8401,7,Amount of traffic,63,,,wad_att_rating,4716,,,,,2022-06-21 16:26:05,28690
601db2e563979b1a6aac8401,ma_choice_v4_observers_real1,601db2e563979b1a6aac8401,6,Quality of heat/AC system,91,,,wad_att_rating,4868,,,,,2022-06-21 16:26:10,28691
5f494c1ba043204912fb6be1,ma_choice_v4_observers_real1,5f494c1ba043204912fb6be1,0,Closeness to parks,1,,,lex_att_rating,5734,,,,,2022-06-21 16:26:16,28692
601db2e563979b1a6aac8401,ma_choice_v4_observers_real1,601db2e563979b1a6aac8401,0,Noise pollution,1,,,ew_att_rating,14347,,,,,2022-06-21 16:26:33,28693
601db2e563979b1a6aac8401,ma_choice_v4_observers_real1,601db2e563979b1a6aac8401,0,Quality of heat/AC system,1,,,ew_att_rating,14347,,,,,2022-06-21 16:26:33,28694
5f494c1ba043204912fb6be1,ma_choice_v4_observers_real1,5f494c1ba043204912fb6be1,3,Year building was built,87,,,wad_att_rating,12789,,,,,2022-06-21 16:26:38,28695
5f494c1ba043204912fb6be1,ma_choice_v4_observers_real1,5f494c1ba043204912fb6be1,5,Quality of kitchen,57,,,wad_att_rating,7771,,,,,2022-06-21 16:26:46,28696
5f494c1ba043204912fb6be1,ma_choice_v4_observers_real1,5f494c1ba043204912fb6be1,6,Quality of heat/AC system,43,,,wad_att_rating,18020,,,,,2022-06-21 16:27:04,28697
5f494c1ba043204912fb6be1,ma_choice_v4_observers_real1,5f494c1ba043204912fb6be1,1,Noise pollution,57,,,wad_att_rating,22246,,,,,2022-06-21 16:27:26,28698
5f494c1ba043204912fb6be1,ma_choice_v4_observers_real1,5f494c1ba043204912fb6be1,0,Closeness to parks,85,,,wad_att_rating,10174,,,,,2022-06-21 16:27:36,28699
5f494c1ba043204912fb6be1,ma_choice_v4_observers_real1,5f494c1ba043204912fb6be1,7,Amount of traffic,44,,,wad_att_rating,5585,,,,,2022-06-21 16:27:42,28700
5f494c1ba043204912fb6be1,ma_choice_v4_observers_real1,5f494c1ba043204912fb6be1,2,Reputation of closest school,68,,,wad_att_rating,6219,,,,,2022-06-21 16:27:48,28701
5f494c1ba043204912fb6be1,ma_choice_v4_observers_real1,5f494c1ba043204912fb6be1,8,Size of home,71,,,wad_att_rating,11451,,,,,2022-06-21 16:28:00,28702
5f494c1ba043204912fb6be1,ma_choice_v4_observers_real1,5f494c1ba043204912fb6be1,4,Size of yard,66,,,wad_att_rating,17131,,,,,2022-06-21 16:28:17,28703
5f494c1ba043204912fb6be1,ma_choice_v4_observers_real1,5f494c1ba043204912fb6be1,0,Reputation of closest school,1,,,ew_att_rating,13880,,,,,2022-06-21 16:28:56,28704
601db2e563979b1a6aac8401,ma_choice_v4_observers_real1,601db2e563979b1a6aac8401,5,Quality of kitchen,-1,Moderate,Very Bad,direction,15465,,,,,2022-06-21 16:29:17,28705
60e792f25e9ab875f9605cf5,ma_choice_v4_observers_real1,60e792f25e9ab875f9605cf5,7,Amount of traffic,-1,Very Little,A Lot,direction,2775,,,,,2022-06-21 16:29:26,28706
60e792f25e9ab875f9605cf5,ma_choice_v4_observers_real1,60e792f25e9ab875f9605cf5,6,Quality of heat/AC system,-1,Very Good,Very Bad,direction,1716,,,,,2022-06-21 16:29:30,28707
601db2e563979b1a6aac8401,ma_choice_v4_observers_real1,601db2e563979b1a6aac8401,3,Year building was built,-1,1985,1950,direction,4486,,,,,2022-06-21 16:29:30,28708
60e792f25e9ab875f9605cf5,ma_choice_v4_observers_real1,60e792f25e9ab875f9605cf5,4,Size of yard,-1,0 square feet,600 square feet,direction,1549,,,,,2022-06-21 16:29:35,28709
60e792f25e9ab875f9605cf5,ma_choice_v4_observers_real1,60e792f25e9ab875f9605cf5,1,Noise pollution,-1,Very Low,Very High,direction,1369,,,,,2022-06-21 16:29:40,28710
601db2e563979b1a6aac8401,ma_choice_v4_observers_real1,601db2e563979b1a6aac8401,2,Reputation of closest school,-1,Good,Very Bad,direction,3810,,,,,2022-06-21 16:29:43,28711
60e792f25e9ab875f9605cf5,ma_choice_v4_observers_real1,60e792f25e9ab875f9605cf5,8,Size of home,-1,1800 square feet,600 square feet,direction,1224,,,,,2022-06-21 16:29:44,28712
60e792f25e9ab875f9605cf5,ma_choice_v4_observers_real1,60e792f25e9ab875f9605cf5,2,Reputation of closest school,-1,Very Good,Very Bad,direction,1324,,,,,2022-06-21 16:29:48,28713
60e792f25e9ab875f9605cf5,ma_choice_v4_observers_real1,60e792f25e9ab875f9605cf5,3,Year building was built,-1,2020,1950,direction,1291,,,,,2022-06-21 16:29:52,28714
601db2e563979b1a6aac8401,ma_choice_v4_observers_real1,601db2e563979b1a6aac8401,6,Quality of heat/AC system,-1,Very Good,Moderate,direction,2724,,,,,2022-06-21 16:29:55,28715
60e792f25e9ab875f9605cf5,ma_choice_v4_observers_real1,60e792f25e9ab875f9605cf5,0,Closeness to parks,-1,10 min away,30 min away,direction,1528,,,,,2022-06-21 16:29:57,28716
60e792f25e9ab875f9605cf5,ma_choice_v4_observers_real1,60e792f25e9ab875f9605cf5,5,Quality of kitchen,-1,Very Good,Very Bad,direction,1458,,,,,2022-06-21 16:30:01,28717
601db2e563979b1a6aac8401,ma_choice_v4_observers_real1,601db2e563979b1a6aac8401,8,Size of home,-1,600 square feet,600 square feet,direction,3298,,,,,2022-06-21 16:30:02,28718
601db2e563979b1a6aac8401,ma_choice_v4_observers_real1,601db2e563979b1a6aac8401,1,Noise pollution,-1,High,Moderate,direction,4919,,,,,2022-06-21 16:30:15,28719
601db2e563979b1a6aac8401,ma_choice_v4_observers_real1,601db2e563979b1a6aac8401,7,Amount of traffic,-1,A Lot,A Lot,direction,6704,,,,,2022-06-21 16:30:27,28720
601db2e563979b1a6aac8401,ma_choice_v4_observers_real1,601db2e563979b1a6aac8401,0,Closeness to parks,-1,20 min away,30 min away,direction,3438,,,,,2022-06-21 16:30:37,28721
601db2e563979b1a6aac8401,ma_choice_v4_observers_real1,601db2e563979b1a6aac8401,4,Size of yard,-1,600 square feet,0 square feet,direction,5085,,,,,2022-06-21 16:30:54,28722
5f494c1ba043204912fb6be1,ma_choice_v4_observers_real1,5f494c1ba043204912fb6be1,7,Amount of traffic,-1,Very Little,A Little,direction,5128,,,,,2022-06-21 16:31:05,28723
5f494c1ba043204912fb6be1,ma_choice_v4_observers_real1,5f494c1ba043204912fb6be1,8,Size of home,-1,1200 square feet,600 square feet,direction,4463,,,,,2022-06-21 16:31:13,28724
5f494c1ba043204912fb6be1,ma_choice_v4_observers_real1,5f494c1ba043204912fb6be1,5,Quality of kitchen,-1,Good,Moderate,direction,4868,,,,,2022-06-21 16:31:21,28725
5f494c1ba043204912fb6be1,ma_choice_v4_observers_real1,5f494c1ba043204912fb6be1,6,Quality of heat/AC system,-1,Good,Moderate,direction,7179,,,,,2022-06-21 16:31:34,28726
5f494c1ba043204912fb6be1,ma_choice_v4_observers_real1,5f494c1ba043204912fb6be1,1,Noise pollution,-1,High,High,direction,4634,,,,,2022-06-21 16:31:43,28727
5f494c1ba043204912fb6be1,ma_choice_v4_observers_real1,5f494c1ba043204912fb6be1,3,Year building was built,-1,1985,1985,direction,5053,,,,,2022-06-21 16:31:52,28728
5f494c1ba043204912fb6be1,ma_choice_v4_observers_real1,5f494c1ba043204912fb6be1,4,Size of yard,-1,300 square feet,300 square feet,direction,3170,,,,,2022-06-21 16:32:00,28729
5f494c1ba043204912fb6be1,ma_choice_v4_observers_real1,5f494c1ba043204912fb6be1,0,Closeness to parks,-1,20 min away,20 min away,direction,2142,,,,,2022-06-21 16:32:09,28730
5f494c1ba043204912fb6be1,ma_choice_v4_observers_real1,5f494c1ba043204912fb6be1,2,Reputation of closest school,-1,Moderate,Moderate,direction,9296,,,,,2022-06-21 16:32:22,28731
5a95fee189de8200013eddd4,ma_choice_v4_observers_real1,5a95fee189de8200013eddd4,0,Year building was built,1,,,ew_att_rating,11332,,,,,2022-06-21 16:34:23,28732
5a95fee189de8200013eddd4,ma_choice_v4_observers_real1,5a95fee189de8200013eddd4,0,Quality of heat/AC system,1,,,ew_att_rating,11332,,,,,2022-06-21 16:34:23,28733
5a95fee189de8200013eddd4,ma_choice_v4_observers_real1,5a95fee189de8200013eddd4,0,Reputation of closest school,1,,,ew_att_rating,11332,,,,,2022-06-21 16:34:23,28734
5a95fee189de8200013eddd4,ma_choice_v4_observers_real1,5a95fee189de8200013eddd4,0,Size of home,1,,,ew_att_rating,11332,,,,,2022-06-21 16:34:23,28735
5a95fee189de8200013eddd4,ma_choice_v4_observers_real1,5a95fee189de8200013eddd4,3,Year building was built,72,,,wad_att_rating,3074,,,,,2022-06-21 16:34:28,28736
5a95fee189de8200013eddd4,ma_choice_v4_observers_real1,5a95fee189de8200013eddd4,6,Quality of heat/AC system,49,,,wad_att_rating,2562,,,,,2022-06-21 16:34:31,28737
5a95fee189de8200013eddd4,ma_choice_v4_observers_real1,5a95fee189de8200013eddd4,4,Size of yard,65,,,wad_att_rating,2955,,,,,2022-06-21 16:34:33,28738
5a95fee189de8200013eddd4,ma_choice_v4_observers_real1,5a95fee189de8200013eddd4,8,Size of home,87,,,wad_att_rating,2626,,,,,2022-06-21 16:34:36,28739
5a95fee189de8200013eddd4,ma_choice_v4_observers_real1,5a95fee189de8200013eddd4,2,Reputation of closest school,73,,,wad_att_rating,2595,,,,,2022-06-21 16:34:39,28740
5a95fee189de8200013eddd4,ma_choice_v4_observers_real1,5a95fee189de8200013eddd4,5,Quality of kitchen,42,,,wad_att_rating,4389,,,,,2022-06-21 16:34:43,28741
5a95fee189de8200013eddd4,ma_choice_v4_observers_real1,5a95fee189de8200013eddd4,1,Noise pollution,15,,,wad_att_rating,3186,,,,,2022-06-21 16:34:46,28742
5a95fee189de8200013eddd4,ma_choice_v4_observers_real1,5a95fee189de8200013eddd4,7,Amount of traffic,17,,,wad_att_rating,2818,,,,,2022-06-21 16:34:49,28743
5a95fee189de8200013eddd4,ma_choice_v4_observers_real1,5a95fee189de8200013eddd4,0,Closeness to parks,37,,,wad_att_rating,2552,,,,,2022-06-21 16:34:52,28744
5a95fee189de8200013eddd4,ma_choice_v4_observers_real1,5a95fee189de8200013eddd4,0,Year building was built,1,,,lex_att_rating,3316,,,,,2022-06-21 16:35:00,28745
5a95fee189de8200013eddd4,ma_choice_v4_observers_real1,5a95fee189de8200013eddd4,5,Quality of kitchen,-1,Moderate,Very Bad,direction,4140,,,,,2022-06-21 16:35:45,28746
5a95fee189de8200013eddd4,ma_choice_v4_observers_real1,5a95fee189de8200013eddd4,7,Amount of traffic,-1,A Little,Very Little,direction,2177,,,,,2022-06-21 16:35:50,28747
5a95fee189de8200013eddd4,ma_choice_v4_observers_real1,5a95fee189de8200013eddd4,0,Closeness to parks,-1,20 min away,30 min away,direction,3613,,,,,2022-06-21 16:35:58,28748
5a95fee189de8200013eddd4,ma_choice_v4_observers_real1,5a95fee189de8200013eddd4,3,Year building was built,-1,1985,1950,direction,2354,,,,,2022-06-21 16:36:05,28749
5a95fee189de8200013eddd4,ma_choice_v4_observers_real1,5a95fee189de8200013eddd4,2,Reputation of closest school,-1,Good,Very Bad,direction,2146,,,,,2022-06-21 16:36:11,28750
5a95fee189de8200013eddd4,ma_choice_v4_observers_real1,5a95fee189de8200013eddd4,4,Size of yard,-1,300 square feet,0 square feet,direction,1970,,,,,2022-06-21 16:36:16,28751
5a95fee189de8200013eddd4,ma_choice_v4_observers_real1,5a95fee189de8200013eddd4,1,Noise pollution,-1,Low,Very Low,direction,2786,,,,,2022-06-21 16:36:22,28752
5a95fee189de8200013eddd4,ma_choice_v4_observers_real1,5a95fee189de8200013eddd4,8,Size of home,-1,1200 square feet,600 square feet,direction,1872,,,,,2022-06-21 16:36:26,28753
5a95fee189de8200013eddd4,ma_choice_v4_observers_real1,5a95fee189de8200013eddd4,6,Quality of heat/AC system,-1,Good,Bad,direction,2081,,,,,2022-06-21 16:36:31,28754
60ffa146784103f75aadb045,ma_choice_v4_observers_real1,60ffa146784103f75aadb045,3,Year building was built,12,,,wad_att_rating,19293,,,,,2022-06-21 16:37:48,28755
60ffa146784103f75aadb045,ma_choice_v4_observers_real1,60ffa146784103f75aadb045,7,Amount of traffic,74,,,wad_att_rating,11166,,,,,2022-06-21 16:38:00,28756
60ffa146784103f75aadb045,ma_choice_v4_observers_real1,60ffa146784103f75aadb045,2,Reputation of closest school,13,,,wad_att_rating,7603,,,,,2022-06-21 16:38:08,28757
60ffa146784103f75aadb045,ma_choice_v4_observers_real1,60ffa146784103f75aadb045,1,Noise pollution,100,,,wad_att_rating,4463,,,,,2022-06-21 16:38:11,28758
60ffa146784103f75aadb045,ma_choice_v4_observers_real1,60ffa146784103f75aadb045,4,Size of yard,11,,,wad_att_rating,5808,,,,,2022-06-21 16:38:17,28759
60ffa146784103f75aadb045,ma_choice_v4_observers_real1,60ffa146784103f75aadb045,0,Closeness to parks,73,,,wad_att_rating,4468,,,,,2022-06-21 16:38:22,28760
60ffa146784103f75aadb045,ma_choice_v4_observers_real1,60ffa146784103f75aadb045,6,Quality of heat/AC system,24,,,wad_att_rating,7103,,,,,2022-06-21 16:38:30,28761
60ffa146784103f75aadb045,ma_choice_v4_observers_real1,60ffa146784103f75aadb045,8,Size of home,24,,,wad_att_rating,5588,,,,,2022-06-21 16:38:35,28762
60ffa146784103f75aadb045,ma_choice_v4_observers_real1,60ffa146784103f75aadb045,5,Quality of kitchen,24,,,wad_att_rating,4788,,,,,2022-06-21 16:38:39,28763
5ef035131f1b2a546b44c391,ma_choice_v4_observers_real1,5ef035131f1b2a546b44c391,0,Quality of heat/AC system,1,,,ew_att_rating,7884,,,,,2022-06-21 16:38:56,28764
5ef035131f1b2a546b44c391,ma_choice_v4_observers_real1,5ef035131f1b2a546b44c391,0,Quality of heat/AC system,1,,,lex_att_rating,3806,,,,,2022-06-21 16:39:16,28765
5d793a152df8ed001645ed7f,ma_choice_v4_observers_real1,5d793a152df8ed001645ed7f,0,Quality of heat/AC system,1,,,lex_att_rating,4015,,,,,2022-06-21 16:39:31,28766
60ffa146784103f75aadb045,ma_choice_v4_observers_real1,60ffa146784103f75aadb045,0,Closeness to parks,1,,,ew_att_rating,26248,,,,,2022-06-21 16:39:33,28767
60ffa146784103f75aadb045,ma_choice_v4_observers_real1,60ffa146784103f75aadb045,0,Noise pollution,1,,,ew_att_rating,26248,,,,,2022-06-21 16:39:33,28768
60ffa146784103f75aadb045,ma_choice_v4_observers_real1,60ffa146784103f75aadb045,0,Amount of traffic,1,,,ew_att_rating,26248,,,,,2022-06-21 16:39:33,28769
5ef035131f1b2a546b44c391,ma_choice_v4_observers_real1,5ef035131f1b2a546b44c391,0,Closeness to parks,100,,,wad_att_rating,7916,,,,,2022-06-21 16:39:37,28770
5d793a152df8ed001645ed7f,ma_choice_v4_observers_real1,5d793a152df8ed001645ed7f,7,Amount of traffic,74,,,wad_att_rating,4542,,,,,2022-06-21 16:39:41,28771
60ffa146784103f75aadb045,ma_choice_v4_observers_real1,60ffa146784103f75aadb045,0,Noise pollution,1,,,lex_att_rating,7531,,,,,2022-06-21 16:39:45,28772
5d793a152df8ed001645ed7f,ma_choice_v4_observers_real1,5d793a152df8ed001645ed7f,0,Closeness to parks,15,,,wad_att_rating,4574,,,,,2022-06-21 16:39:46,28773
5ef035131f1b2a546b44c391,ma_choice_v4_observers_real1,5ef035131f1b2a546b44c391,8,Size of home,0,,,wad_att_rating,12131,,,,,2022-06-21 16:39:49,28774
5d793a152df8ed001645ed7f,ma_choice_v4_observers_real1,5d793a152df8ed001645ed7f,2,Reputation of closest school,38,,,wad_att_rating,3934,,,,,2022-06-21 16:39:50,28775
5d793a152df8ed001645ed7f,ma_choice_v4_observers_real1,5d793a152df8ed001645ed7f,1,Noise pollution,65,,,wad_att_rating,1775,,,,,2022-06-21 16:39:52,28776
5ef035131f1b2a546b44c391,ma_choice_v4_observers_real1,5ef035131f1b2a546b44c391,5,Quality of kitchen,0,,,wad_att_rating,3501,,,,,2022-06-21 16:39:52,28777
5d793a152df8ed001645ed7f,ma_choice_v4_observers_real1,5d793a152df8ed001645ed7f,6,Quality of heat/AC system,91,,,wad_att_rating,3855,,,,,2022-06-21 16:39:55,28778
5ef035131f1b2a546b44c391,ma_choice_v4_observers_real1,5ef035131f1b2a546b44c391,6,Quality of heat/AC system,100,,,wad_att_rating,3836,,,,,2022-06-21 16:39:56,28779
5d793a152df8ed001645ed7f,ma_choice_v4_observers_real1,5d793a152df8ed001645ed7f,8,Size of home,38,,,wad_att_rating,2870,,,,,2022-06-21 16:39:58,28780
5ef035131f1b2a546b44c391,ma_choice_v4_observers_real1,5ef035131f1b2a546b44c391,3,Year building was built,0,,,wad_att_rating,2939,,,,,2022-06-21 16:39:59,28781
5d793a152df8ed001645ed7f,ma_choice_v4_observers_real1,5d793a152df8ed001645ed7f,4,Size of yard,34,,,wad_att_rating,2245,,,,,2022-06-21 16:40:01,28782
5ef035131f1b2a546b44c391,ma_choice_v4_observers_real1,5ef035131f1b2a546b44c391,7,Amount of traffic,0,,,wad_att_rating,2942,,,,,2022-06-21 16:40:02,28783
5d793a152df8ed001645ed7f,ma_choice_v4_observers_real1,5d793a152df8ed001645ed7f,3,Year building was built,7,,,wad_att_rating,3480,,,,,2022-06-21 16:40:04,28784
5ef035131f1b2a546b44c391,ma_choice_v4_observers_real1,5ef035131f1b2a546b44c391,2,Reputation of closest school,0,,,wad_att_rating,3373,,,,,2022-06-21 16:40:05,28785
5d793a152df8ed001645ed7f,ma_choice_v4_observers_real1,5d793a152df8ed001645ed7f,5,Quality of kitchen,50,,,wad_att_rating,2479,,,,,2022-06-21 16:40:07,28786
5ef035131f1b2a546b44c391,ma_choice_v4_observers_real1,5ef035131f1b2a546b44c391,4,Size of yard,12,,,wad_att_rating,5498,,,,,2022-06-21 16:40:11,28787
5ef035131f1b2a546b44c391,ma_choice_v4_observers_real1,5ef035131f1b2a546b44c391,1,Noise pollution,12,,,wad_att_rating,4194,,,,,2022-06-21 16:40:15,28788
5d793a152df8ed001645ed7f,ma_choice_v4_observers_real1,5d793a152df8ed001645ed7f,0,Noise pollution,1,,,ew_att_rating,10724,,,,,2022-06-21 16:40:24,28789
5d793a152df8ed001645ed7f,ma_choice_v4_observers_real1,5d793a152df8ed001645ed7f,0,Quality of heat/AC system,1,,,ew_att_rating,10724,,,,,2022-06-21 16:40:24,28790
5d793a152df8ed001645ed7f,ma_choice_v4_observers_real1,5d793a152df8ed001645ed7f,0,Closeness to parks,-1,15 min away,30 min away,direction,2643,,,,,2022-06-21 16:41:11,28791
5d793a152df8ed001645ed7f,ma_choice_v4_observers_real1,5d793a152df8ed001645ed7f,6,Quality of heat/AC system,-1,Very Good,Very Bad,direction,2811,,,,,2022-06-21 16:41:17,28792
5d793a152df8ed001645ed7f,ma_choice_v4_observers_real1,5d793a152df8ed001645ed7f,7,Amount of traffic,-1,A Little,A Lot,direction,1930,,,,,2022-06-21 16:41:23,28793
5d793a152df8ed001645ed7f,ma_choice_v4_observers_real1,5d793a152df8ed001645ed7f,4,Size of yard,-1,600 square feet,0 square feet,direction,2252,,,,,2022-06-21 16:41:28,28794
629f600f0e7c09ec275bfdc2,ma_choice_v4_observers_real1,629f600f0e7c09ec275bfdc2,0,Quality of kitchen,1,,,lex_att_rating,2867,,,,,2022-06-21 16:41:40,28795
629f600f0e7c09ec275bfdc2,ma_choice_v4_observers_real1,629f600f0e7c09ec275bfdc2,5,Quality of kitchen,86,,,wad_att_rating,3721,,,,,2022-06-21 16:41:46,28796
5d793a152df8ed001645ed7f,ma_choice_v4_observers_real1,5d793a152df8ed001645ed7f,5,Quality of kitchen,-1,Good,Very Bad,direction,2570,,,,,2022-06-21 16:41:48,28797
629f600f0e7c09ec275bfdc2,ma_choice_v4_observers_real1,629f600f0e7c09ec275bfdc2,7,Amount of traffic,25,,,wad_att_rating,3545,,,,,2022-06-21 16:41:50,28798
629f600f0e7c09ec275bfdc2,ma_choice_v4_observers_real1,629f600f0e7c09ec275bfdc2,3,Year building was built,12,,,wad_att_rating,2471,,,,,2022-06-21 16:41:52,28799
629f600f0e7c09ec275bfdc2,ma_choice_v4_observers_real1,629f600f0e7c09ec275bfdc2,0,Closeness to parks,24,,,wad_att_rating,3088,,,,,2022-06-21 16:41:55,28800
5d793a152df8ed001645ed7f,ma_choice_v4_observers_real1,5d793a152df8ed001645ed7f,2,Reputation of closest school,-1,Very Good,Very Bad,direction,3116,,,,,2022-06-21 16:41:55,28801
629f600f0e7c09ec275bfdc2,ma_choice_v4_observers_real1,629f600f0e7c09ec275bfdc2,2,Reputation of closest school,11,,,wad_att_rating,2883,,,,,2022-06-21 16:41:58,28802
629f600f0e7c09ec275bfdc2,ma_choice_v4_observers_real1,629f600f0e7c09ec275bfdc2,8,Size of home,12,,,wad_att_rating,2391,,,,,2022-06-21 16:42:00,28803
5d793a152df8ed001645ed7f,ma_choice_v4_observers_real1,5d793a152df8ed001645ed7f,1,Noise pollution,-1,Very Low,Very High,direction,2252,,,,,2022-06-21 16:42:03,28804
629f600f0e7c09ec275bfdc2,ma_choice_v4_observers_real1,629f600f0e7c09ec275bfdc2,4,Size of yard,1,,,wad_att_rating,4792,,,,,2022-06-21 16:42:05,28805
629f600f0e7c09ec275bfdc2,ma_choice_v4_observers_real1,629f600f0e7c09ec275bfdc2,6,Quality of heat/AC system,79,,,wad_att_rating,2679,,,,,2022-06-21 16:42:08,28806
5d793a152df8ed001645ed7f,ma_choice_v4_observers_real1,5d793a152df8ed001645ed7f,8,Size of home,-1,1200 square feet,600 square feet,direction,2403,,,,,2022-06-21 16:42:10,28807
629f600f0e7c09ec275bfdc2,ma_choice_v4_observers_real1,629f600f0e7c09ec275bfdc2,1,Noise pollution,23,,,wad_att_rating,2590,,,,,2022-06-21 16:42:10,28808
5d793a152df8ed001645ed7f,ma_choice_v4_observers_real1,5d793a152df8ed001645ed7f,3,Year building was built,-1,1985,1950,direction,1707,,,,,2022-06-21 16:42:20,28809
629f600f0e7c09ec275bfdc2,ma_choice_v4_observers_real1,629f600f0e7c09ec275bfdc2,0,Quality of heat/AC system,1,,,ew_att_rating,5708,,,,,2022-06-21 16:42:22,28810
629f600f0e7c09ec275bfdc2,ma_choice_v4_observers_real1,629f600f0e7c09ec275bfdc2,0,Quality of kitchen,1,,,ew_att_rating,5708,,,,,2022-06-21 16:42:22,28811
60ffa146784103f75aadb045,ma_choice_v4_observers_real1,60ffa146784103f75aadb045,8,Size of home,-1,600 square feet,1800 square feet,direction,10557,,,,,2022-06-21 16:42:30,28812
60ffa146784103f75aadb045,ma_choice_v4_observers_real1,60ffa146784103f75aadb045,0,Closeness to parks,-1,10 min away,30 min away,direction,5107,,,,,2022-06-21 16:42:46,28813
60ffa146784103f75aadb045,ma_choice_v4_observers_real1,60ffa146784103f75aadb045,7,Amount of traffic,-1,A Moderate Amount,A Little,direction,8936,,,,,2022-06-21 16:43:12,28814
614f571879ee135c5a579e08,ma_choice_v4_observers_real1,614f571879ee135c5a579e08,1,Noise pollution,85,,,wad_att_rating,12188,,,,,2022-06-21 16:43:25,28815
614f571879ee135c5a579e08,ma_choice_v4_observers_real1,614f571879ee135c5a579e08,2,Reputation of closest school,0,,,wad_att_rating,5248,,,,,2022-06-21 16:43:30,28816
60ffa146784103f75aadb045,ma_choice_v4_observers_real1,60ffa146784103f75aadb045,1,Noise pollution,-1,Very Low,Very High,direction,11571,,,,,2022-06-21 16:43:33,28817
614f571879ee135c5a579e08,ma_choice_v4_observers_real1,614f571879ee135c5a579e08,3,Year building was built,11,,,wad_att_rating,3712,,,,,2022-06-21 16:43:34,28818
614f571879ee135c5a579e08,ma_choice_v4_observers_real1,614f571879ee135c5a579e08,6,Quality of heat/AC system,50,,,wad_att_rating,4757,,,,,2022-06-21 16:43:39,28819
60ffa146784103f75aadb045,ma_choice_v4_observers_real1,60ffa146784103f75aadb045,4,Size of yard,-1,300 square feet,0 square feet,direction,3753,,,,,2022-06-21 16:43:44,28820
614f571879ee135c5a579e08,ma_choice_v4_observers_real1,614f571879ee135c5a579e08,7,Amount of traffic,25,,,wad_att_rating,5837,,,,,2022-06-21 16:43:45,28821
614f571879ee135c5a579e08,ma_choice_v4_observers_real1,614f571879ee135c5a579e08,4,Size of yard,24,,,wad_att_rating,4074,,,,,2022-06-21 16:43:49,28822
614f571879ee135c5a579e08,ma_choice_v4_observers_real1,614f571879ee135c5a579e08,0,Closeness to parks,87,,,wad_att_rating,5514,,,,,2022-06-21 16:43:54,28823
614f571879ee135c5a579e08,ma_choice_v4_observers_real1,614f571879ee135c5a579e08,8,Size of home,78,,,wad_att_rating,5668,,,,,2022-06-21 16:44:00,28824
614f571879ee135c5a579e08,ma_choice_v4_observers_real1,614f571879ee135c5a579e08,5,Quality of kitchen,36,,,wad_att_rating,5268,,,,,2022-06-21 16:44:05,28825
60ffa146784103f75aadb045,ma_choice_v4_observers_real1,60ffa146784103f75aadb045,2,Reputation of closest school,-1,Very Bad,Moderate,direction,9359,,,,,2022-06-21 16:44:16,28826
60ffa146784103f75aadb045,ma_choice_v4_observers_real1,60ffa146784103f75aadb045,6,Quality of heat/AC system,-1,Very Bad,Moderate,direction,3386,,,,,2022-06-21 16:44:27,28827
60ffa146784103f75aadb045,ma_choice_v4_observers_real1,60ffa146784103f75aadb045,3,Year building was built,-1,1985,2020,direction,3785,,,,,2022-06-21 16:44:52,28828
614f571879ee135c5a579e08,ma_choice_v4_observers_real1,614f571879ee135c5a579e08,0,Closeness to parks,1,,,ew_att_rating,15621,,,,,2022-06-21 16:44:53,28829
614f571879ee135c5a579e08,ma_choice_v4_observers_real1,614f571879ee135c5a579e08,0,Noise pollution,1,,,ew_att_rating,15621,,,,,2022-06-21 16:44:53,28830
614f571879ee135c5a579e08,ma_choice_v4_observers_real1,614f571879ee135c5a579e08,0,Quality of heat/AC system,1,,,ew_att_rating,15621,,,,,2022-06-21 16:44:53,28831
614f571879ee135c5a579e08,ma_choice_v4_observers_real1,614f571879ee135c5a579e08,0,Size of home,1,,,ew_att_rating,15621,,,,,2022-06-21 16:44:53,28832
60de9c66c01a9de405e9efb0,ma_choice_v4_observers_real1,60de9c66c01a9de405e9efb0,0,Noise pollution,1,,,ew_att_rating,200820,,,,,2022-06-21 16:45:09,28833
5cb553b7a0ccb30017e5b617,ma_choice_v4_observers_real1,5cb553b7a0ccb30017e5b617,0,Quality of heat/AC system,1,,,lex_att_rating,22146,,,,,2022-06-21 16:45:13,28834
60ffa146784103f75aadb045,ma_choice_v4_observers_real1,60ffa146784103f75aadb045,5,Quality of kitchen,-1,Very Bad,Moderate,direction,2878,,,,,2022-06-21 16:45:26,28835
5cb553b7a0ccb30017e5b617,ma_choice_v4_observers_real1,5cb553b7a0ccb30017e5b617,4,Size of yard,0,,,wad_att_rating,9608,,,,,2022-06-21 16:45:28,28836
5cb553b7a0ccb30017e5b617,ma_choice_v4_observers_real1,5cb553b7a0ccb30017e5b617,6,Quality of heat/AC system,88,,,wad_att_rating,5134,,,,,2022-06-21 16:45:33,28837
614f571879ee135c5a579e08,ma_choice_v4_observers_real1,614f571879ee135c5a579e08,0,Closeness to parks,1,,,lex_att_rating,35452,,,,,2022-06-21 16:45:36,28838
5cb553b7a0ccb30017e5b617,ma_choice_v4_observers_real1,5cb553b7a0ccb30017e5b617,1,Noise pollution,75,,,wad_att_rating,5181,,,,,2022-06-21 16:45:38,28839
5cb553b7a0ccb30017e5b617,ma_choice_v4_observers_real1,5cb553b7a0ccb30017e5b617,0,Closeness to parks,0,,,wad_att_rating,3968,,,,,2022-06-21 16:45:42,28840
5cb553b7a0ccb30017e5b617,ma_choice_v4_observers_real1,5cb553b7a0ccb30017e5b617,8,Size of home,0,,,wad_att_rating,3121,,,,,2022-06-21 16:45:45,28841
5cb553b7a0ccb30017e5b617,ma_choice_v4_observers_real1,5cb553b7a0ccb30017e5b617,2,Reputation of closest school,75,,,wad_att_rating,3882,,,,,2022-06-21 16:45:49,28842
5cb553b7a0ccb30017e5b617,ma_choice_v4_observers_real1,5cb553b7a0ccb30017e5b617,5,Quality of kitchen,88,,,wad_att_rating,3603,,,,,2022-06-21 16:45:53,28843
629f600f0e7c09ec275bfdc2,ma_choice_v4_observers_real1,629f600f0e7c09ec275bfdc2,7,Amount of traffic,-1,A Little,A Little,direction,3018,,,,,2022-06-21 16:45:58,28844
5cb553b7a0ccb30017e5b617,ma_choice_v4_observers_real1,5cb553b7a0ccb30017e5b617,7,Amount of traffic,50,,,wad_att_rating,5489,,,,,2022-06-21 16:45:58,28845
5cb553b7a0ccb30017e5b617,ma_choice_v4_observers_real1,5cb553b7a0ccb30017e5b617,3,Year building was built,0,,,wad_att_rating,3630,,,,,2022-06-21 16:46:02,28846
629f600f0e7c09ec275bfdc2,ma_choice_v4_observers_real1,629f600f0e7c09ec275bfdc2,8,Size of home,-1,1200 square feet,600 square feet,direction,3323,,,,,2022-06-21 16:46:07,28847
629f600f0e7c09ec275bfdc2,ma_choice_v4_observers_real1,629f600f0e7c09ec275bfdc2,1,Noise pollution,-1,Very Low,Very High,direction,1968,,,,,2022-06-21 16:46:11,28848
629f600f0e7c09ec275bfdc2,ma_choice_v4_observers_real1,629f600f0e7c09ec275bfdc2,6,Quality of heat/AC system,-1,Very Good,Very Bad,direction,1547,,,,,2022-06-21 16:46:16,28849
629f600f0e7c09ec275bfdc2,ma_choice_v4_observers_real1,629f600f0e7c09ec275bfdc2,4,Size of yard,-1,300 square feet,0 square feet,direction,1856,,,,,2022-06-21 16:46:22,28850
5cb553b7a0ccb30017e5b617,ma_choice_v4_observers_real1,5cb553b7a0ccb30017e5b617,0,Reputation of closest school,1,,,ew_att_rating,16549,,,,,2022-06-21 16:46:26,28851
5cb553b7a0ccb30017e5b617,ma_choice_v4_observers_real1,5cb553b7a0ccb30017e5b617,0,Quality of heat/AC system,1,,,ew_att_rating,16549,,,,,2022-06-21 16:46:26,28852
5cb553b7a0ccb30017e5b617,ma_choice_v4_observers_real1,5cb553b7a0ccb30017e5b617,0,Quality of kitchen,1,,,ew_att_rating,16549,,,,,2022-06-21 16:46:26,28853
5cb553b7a0ccb30017e5b617,ma_choice_v4_observers_real1,5cb553b7a0ccb30017e5b617,0,Noise pollution,1,,,ew_att_rating,16549,,,,,2022-06-21 16:46:26,28854
629f600f0e7c09ec275bfdc2,ma_choice_v4_observers_real1,629f600f0e7c09ec275bfdc2,3,Year building was built,-1,2020,1950,direction,1532,,,,,2022-06-21 16:46:28,28855
629f600f0e7c09ec275bfdc2,ma_choice_v4_observers_real1,629f600f0e7c09ec275bfdc2,0,Closeness to parks,-1,10 min away,30 min away,direction,1532,,,,,2022-06-21 16:46:32,28856
60de9c66c01a9de405e9efb0,ma_choice_v4_observers_real1,60de9c66c01a9de405e9efb0,0,Reputation of closest school,1,,,lex_att_rating,4692,,,,,2022-06-21 16:46:35,28857
629f600f0e7c09ec275bfdc2,ma_choice_v4_observers_real1,629f600f0e7c09ec275bfdc2,2,Reputation of closest school,-1,Very Good,Very Bad,direction,1519,,,,,2022-06-21 16:46:36,28858
629f600f0e7c09ec275bfdc2,ma_choice_v4_observers_real1,629f600f0e7c09ec275bfdc2,5,Quality of kitchen,-1,Very Good,Very Bad,direction,990,,,,,2022-06-21 16:46:39,28859
60de9c66c01a9de405e9efb0,ma_choice_v4_observers_real1,60de9c66c01a9de405e9efb0,1,Noise pollution,0,,,wad_att_rating,7616,,,,,2022-06-21 16:46:50,28860
60de9c66c01a9de405e9efb0,ma_choice_v4_observers_real1,60de9c66c01a9de405e9efb0,2,Reputation of closest school,0,,,wad_att_rating,43352,,,,,2022-06-21 16:47:34,28861
60de9c66c01a9de405e9efb0,ma_choice_v4_observers_real1,60de9c66c01a9de405e9efb0,6,Quality of heat/AC system,0,,,wad_att_rating,5233,,,,,2022-06-21 16:47:39,28862
60de9c66c01a9de405e9efb0,ma_choice_v4_observers_real1,60de9c66c01a9de405e9efb0,8,Size of home,0,,,wad_att_rating,5157,,,,,2022-06-21 16:47:44,28863
60de9c66c01a9de405e9efb0,ma_choice_v4_observers_real1,60de9c66c01a9de405e9efb0,4,Size of yard,0,,,wad_att_rating,5138,,,,,2022-06-21 16:47:49,28864
614f571879ee135c5a579e08,ma_choice_v4_observers_real1,614f571879ee135c5a579e08,2,Reputation of closest school,-1,Very Bad,Very Bad,direction,27525,,,,,2022-06-21 16:47:51,28865
60de9c66c01a9de405e9efb0,ma_choice_v4_observers_real1,60de9c66c01a9de405e9efb0,3,Year building was built,0,,,wad_att_rating,4012,,,,,2022-06-21 16:47:53,28866
60de9c66c01a9de405e9efb0,ma_choice_v4_observers_real1,60de9c66c01a9de405e9efb0,7,Amount of traffic,0,,,wad_att_rating,3993,,,,,2022-06-21 16:47:57,28867
60de9c66c01a9de405e9efb0,ma_choice_v4_observers_real1,60de9c66c01a9de405e9efb0,0,Closeness to parks,0,,,wad_att_rating,3743,,,,,2022-06-21 16:48:01,28868
614f571879ee135c5a579e08,ma_choice_v4_observers_real1,614f571879ee135c5a579e08,3,Year building was built,-1,2020,1950,direction,3517,,,,,2022-06-21 16:48:03,28869
60de9c66c01a9de405e9efb0,ma_choice_v4_observers_real1,60de9c66c01a9de405e9efb0,5,Quality of kitchen,0,,,wad_att_rating,4983,,,,,2022-06-21 16:48:06,28870
614f571879ee135c5a579e08,ma_choice_v4_observers_real1,614f571879ee135c5a579e08,6,Quality of heat/AC system,-1,Very Good,Very Bad,direction,4353,,,,,2022-06-21 16:48:19,28871
614f571879ee135c5a579e08,ma_choice_v4_observers_real1,614f571879ee135c5a579e08,5,Quality of kitchen,-1,Very Good,Very Bad,direction,2608,,,,,2022-06-21 16:48:26,28872
614f571879ee135c5a579e08,ma_choice_v4_observers_real1,614f571879ee135c5a579e08,1,Noise pollution,-1,Very Low,Very High,direction,3122,,,,,2022-06-21 16:48:35,28873
614f571879ee135c5a579e08,ma_choice_v4_observers_real1,614f571879ee135c5a579e08,7,Amount of traffic,-1,Very Little,A Lot,direction,2649,,,,,2022-06-21 16:48:42,28874
614f571879ee135c5a579e08,ma_choice_v4_observers_real1,614f571879ee135c5a579e08,4,Size of yard,-1,600 square feet,0 square feet,direction,3467,,,,,2022-06-21 16:48:51,28875
614f571879ee135c5a579e08,ma_choice_v4_observers_real1,614f571879ee135c5a579e08,0,Closeness to parks,-1,10 min away,30 min away,direction,3342,,,,,2022-06-21 16:48:59,28876
5a02083e087f2e0001eadbdb,ma_choice_v4_observers_real1,5a02083e087f2e0001eadbdb,0,Quality of heat/AC system,1,,,lex_att_rating,5871,,,,,2022-06-21 16:49:00,28877
614f571879ee135c5a579e08,ma_choice_v4_observers_real1,614f571879ee135c5a579e08,8,Size of home,-1,1800 square feet,600 square feet,direction,2834,,,,,2022-06-21 16:49:06,28878
5a02083e087f2e0001eadbdb,ma_choice_v4_observers_real1,5a02083e087f2e0001eadbdb,3,Year building was built,12,,,wad_att_rating,7054,,,,,2022-06-21 16:49:15,28879
5a02083e087f2e0001eadbdb,ma_choice_v4_observers_real1,5a02083e087f2e0001eadbdb,0,Closeness to parks,61,,,wad_att_rating,5926,,,,,2022-06-21 16:49:21,28880
5a02083e087f2e0001eadbdb,ma_choice_v4_observers_real1,5a02083e087f2e0001eadbdb,8,Size of home,37,,,wad_att_rating,4950,,,,,2022-06-21 16:49:26,28881
5a02083e087f2e0001eadbdb,ma_choice_v4_observers_real1,5a02083e087f2e0001eadbdb,2,Reputation of closest school,5,,,wad_att_rating,3662,,,,,2022-06-21 16:49:30,28882
5a02083e087f2e0001eadbdb,ma_choice_v4_observers_real1,5a02083e087f2e0001eadbdb,1,Noise pollution,7,,,wad_att_rating,3070,,,,,2022-06-21 16:49:33,28883
5a02083e087f2e0001eadbdb,ma_choice_v4_observers_real1,5a02083e087f2e0001eadbdb,7,Amount of traffic,13,,,wad_att_rating,2974,,,,,2022-06-21 16:49:36,28884
5a02083e087f2e0001eadbdb,ma_choice_v4_observers_real1,5a02083e087f2e0001eadbdb,4,Size of yard,62,,,wad_att_rating,3358,,,,,2022-06-21 16:49:39,28885
5a02083e087f2e0001eadbdb,ma_choice_v4_observers_real1,5a02083e087f2e0001eadbdb,5,Quality of kitchen,87,,,wad_att_rating,3294,,,,,2022-06-21 16:49:42,28886
5a02083e087f2e0001eadbdb,ma_choice_v4_observers_real1,5a02083e087f2e0001eadbdb,6,Quality of heat/AC system,87,,,wad_att_rating,2710,,,,,2022-06-21 16:49:45,28887
5a02083e087f2e0001eadbdb,ma_choice_v4_observers_real1,5a02083e087f2e0001eadbdb,0,Closeness to parks,1,,,ew_att_rating,10149,,,,,2022-06-21 16:50:07,28888
5a02083e087f2e0001eadbdb,ma_choice_v4_observers_real1,5a02083e087f2e0001eadbdb,0,Quality of kitchen,1,,,ew_att_rating,10149,,,,,2022-06-21 16:50:07,28889
5a02083e087f2e0001eadbdb,ma_choice_v4_observers_real1,5a02083e087f2e0001eadbdb,0,Quality of heat/AC system,1,,,ew_att_rating,10149,,,,,2022-06-21 16:50:07,28890
5b208c7888ee7400012b63f4,ma_choice_v4_observers_real1,5b208c7888ee7400012b63f4,0,Reputation of closest school,1,,,lex_att_rating,4619,,,,,2022-06-21 16:50:35,28891
5b208c7888ee7400012b63f4,ma_choice_v4_observers_real1,5b208c7888ee7400012b63f4,8,Size of home,36,,,wad_att_rating,3097,,,,,2022-06-21 16:50:43,28892
5b208c7888ee7400012b63f4,ma_choice_v4_observers_real1,5b208c7888ee7400012b63f4,7,Amount of traffic,13,,,wad_att_rating,2497,,,,,2022-06-21 16:50:46,28893
5b208c7888ee7400012b63f4,ma_choice_v4_observers_real1,5b208c7888ee7400012b63f4,5,Quality of kitchen,37,,,wad_att_rating,3797,,,,,2022-06-21 16:50:50,28894
5b208c7888ee7400012b63f4,ma_choice_v4_observers_real1,5b208c7888ee7400012b63f4,4,Size of yard,49,,,wad_att_rating,4383,,,,,2022-06-21 16:50:54,28895
5b208c7888ee7400012b63f4,ma_choice_v4_observers_real1,5b208c7888ee7400012b63f4,6,Quality of heat/AC system,25,,,wad_att_rating,2630,,,,,2022-06-21 16:50:57,28896
5b208c7888ee7400012b63f4,ma_choice_v4_observers_real1,5b208c7888ee7400012b63f4,2,Reputation of closest school,75,,,wad_att_rating,2362,,,,,2022-06-21 16:50:59,28897
5b208c7888ee7400012b63f4,ma_choice_v4_observers_real1,5b208c7888ee7400012b63f4,0,Closeness to parks,23,,,wad_att_rating,2949,,,,,2022-06-21 16:51:02,28898
5b208c7888ee7400012b63f4,ma_choice_v4_observers_real1,5b208c7888ee7400012b63f4,3,Year building was built,23,,,wad_att_rating,2785,,,,,2022-06-21 16:51:05,28899
5b208c7888ee7400012b63f4,ma_choice_v4_observers_real1,5b208c7888ee7400012b63f4,1,Noise pollution,10,,,wad_att_rating,2263,,,,,2022-06-21 16:51:07,28900
5a02083e087f2e0001eadbdb,ma_choice_v4_observers_real1,5a02083e087f2e0001eadbdb,1,Noise pollution,-1,Low,High,direction,3494,,,,,2022-06-21 16:51:24,28901
5b208c7888ee7400012b63f4,ma_choice_v4_observers_real1,5b208c7888ee7400012b63f4,0,Reputation of closest school,1,,,ew_att_rating,16292,,,,,2022-06-21 16:51:27,28902
5b208c7888ee7400012b63f4,ma_choice_v4_observers_real1,5b208c7888ee7400012b63f4,0,Size of yard,1,,,ew_att_rating,16292,,,,,2022-06-21 16:51:27,28903
5b208c7888ee7400012b63f4,ma_choice_v4_observers_real1,5b208c7888ee7400012b63f4,0,Size of home,1,,,ew_att_rating,16292,,,,,2022-06-21 16:51:27,28904
5a02083e087f2e0001eadbdb,ma_choice_v4_observers_real1,5a02083e087f2e0001eadbdb,2,Reputation of closest school,-1,Very Good,Very Bad,direction,5239,,,,,2022-06-21 16:51:34,28905
5a02083e087f2e0001eadbdb,ma_choice_v4_observers_real1,5a02083e087f2e0001eadbdb,8,Size of home,-1,1200 square feet,600 square feet,direction,1815,,,,,2022-06-21 16:51:41,28906
5a02083e087f2e0001eadbdb,ma_choice_v4_observers_real1,5a02083e087f2e0001eadbdb,4,Size of yard,-1,300 square feet,0 square feet,direction,1686,,,,,2022-06-21 16:51:47,28907
5ef035131f1b2a546b44c391,ma_choice_v4_observers_real1,5ef035131f1b2a546b44c391,2,Reputation of closest school,-1,Moderate,Very Good,direction,7403,,,,,2022-06-21 16:51:48,28908
5a02083e087f2e0001eadbdb,ma_choice_v4_observers_real1,5a02083e087f2e0001eadbdb,3,Year building was built,-1,1985,1950,direction,1654,,,,,2022-06-21 16:51:54,28909
5a02083e087f2e0001eadbdb,ma_choice_v4_observers_real1,5a02083e087f2e0001eadbdb,7,Amount of traffic,-1,A Little,A Lot,direction,2022,,,,,2022-06-21 16:52:00,28910
5a02083e087f2e0001eadbdb,ma_choice_v4_observers_real1,5a02083e087f2e0001eadbdb,5,Quality of kitchen,-1,Very Good,Very Bad,direction,2039,,,,,2022-06-21 16:52:06,28911
5ef035131f1b2a546b44c391,ma_choice_v4_observers_real1,5ef035131f1b2a546b44c391,0,Closeness to parks,-1,30 min away,15 min away,direction,8165,,,,,2022-06-21 16:52:10,28912
5a02083e087f2e0001eadbdb,ma_choice_v4_observers_real1,5a02083e087f2e0001eadbdb,0,Closeness to parks,-1,10 min away,30 min away,direction,3486,,,,,2022-06-21 16:52:14,28913
5a02083e087f2e0001eadbdb,ma_choice_v4_observers_real1,5a02083e087f2e0001eadbdb,6,Quality of heat/AC system,-1,Very Good,Very Bad,direction,2135,,,,,2022-06-21 16:52:20,28914
5ef035131f1b2a546b44c391,ma_choice_v4_observers_real1,5ef035131f1b2a546b44c391,4,Size of yard,-1,300 square feet,0 square feet,direction,3046,,,,,2022-06-21 16:52:23,28915
5dd6d2d11228d9667276c3b7,ma_choice_v4_observers_real1,5dd6d2d11228d9667276c3b7,5,Quality of kitchen,0,,,wad_att_rating,8500,,,,,2022-06-21 16:52:28,28916
5ef035131f1b2a546b44c391,ma_choice_v4_observers_real1,5ef035131f1b2a546b44c391,3,Year building was built,-1,1985,1950,direction,2949,,,,,2022-06-21 16:52:33,28917
5dd6d2d11228d9667276c3b7,ma_choice_v4_observers_real1,5dd6d2d11228d9667276c3b7,4,Size of yard,12,,,wad_att_rating,6100,,,,,2022-06-21 16:52:34,28918
5dd6d2d11228d9667276c3b7,ma_choice_v4_observers_real1,5dd6d2d11228d9667276c3b7,0,Closeness to parks,0,,,wad_att_rating,4300,,,,,2022-06-21 16:52:39,28919
5ef035131f1b2a546b44c391,ma_choice_v4_observers_real1,5ef035131f1b2a546b44c391,6,Quality of heat/AC system,-1,Very Good,Very Bad,direction,3342,,,,,2022-06-21 16:52:46,28920
5dd6d2d11228d9667276c3b7,ma_choice_v4_observers_real1,5dd6d2d11228d9667276c3b7,8,Size of home,93,,,wad_att_rating,9000,,,,,2022-06-21 16:52:48,28921
5dd6d2d11228d9667276c3b7,ma_choice_v4_observers_real1,5dd6d2d11228d9667276c3b7,2,Reputation of closest school,12,,,wad_att_rating,3800,,,,,2022-06-21 16:52:51,28922
5dd6d2d11228d9667276c3b7,ma_choice_v4_observers_real1,5dd6d2d11228d9667276c3b7,7,Amount of traffic,49,,,wad_att_rating,4900,,,,,2022-06-21 16:52:56,28923
5ef035131f1b2a546b44c391,ma_choice_v4_observers_real1,5ef035131f1b2a546b44c391,7,Amount of traffic,-1,A Moderate Amount,A Lot,direction,2517,,,,,2022-06-21 16:52:59,28924
5dd6d2d11228d9667276c3b7,ma_choice_v4_observers_real1,5dd6d2d11228d9667276c3b7,1,Noise pollution,49,,,wad_att_rating,4100,,,,,2022-06-21 16:53:00,28925
5dd6d2d11228d9667276c3b7,ma_choice_v4_observers_real1,5dd6d2d11228d9667276c3b7,6,Quality of heat/AC system,87,,,wad_att_rating,6300,,,,,2022-06-21 16:53:07,28926
5dd6d2d11228d9667276c3b7,ma_choice_v4_observers_real1,5dd6d2d11228d9667276c3b7,3,Year building was built,13,,,wad_att_rating,4300,,,,,2022-06-21 16:53:11,28927
5ef035131f1b2a546b44c391,ma_choice_v4_observers_real1,5ef035131f1b2a546b44c391,1,Noise pollution,-1,Low,Very High,direction,3645,,,,,2022-06-21 16:53:16,28928
5dd00a19b51b3e103a6f50c8,ma_choice_v4_observers_real1,5dd00a19b51b3e103a6f50c8,2,Reputation of closest school,100,,,wad_att_rating,4990,,,,,2022-06-21 16:53:17,28929
5ef035131f1b2a546b44c391,ma_choice_v4_observers_real1,5ef035131f1b2a546b44c391,8,Size of home,-1,1200 square feet,600 square feet,direction,2486,,,,,2022-06-21 16:53:23,28930
5dd00a19b51b3e103a6f50c8,ma_choice_v4_observers_real1,5dd00a19b51b3e103a6f50c8,7,Amount of traffic,0,,,wad_att_rating,6876,,,,,2022-06-21 16:53:24,28931
5dd6d2d11228d9667276c3b7,ma_choice_v4_observers_real1,5dd6d2d11228d9667276c3b7,0,Size of home,1,,,lex_att_rating,4000,,,,,2022-06-21 16:53:27,28932
5dd00a19b51b3e103a6f50c8,ma_choice_v4_observers_real1,5dd00a19b51b3e103a6f50c8,0,Closeness to parks,0,,,wad_att_rating,5129,,,,,2022-06-21 16:53:29,28933
5ef035131f1b2a546b44c391,ma_choice_v4_observers_real1,5ef035131f1b2a546b44c391,5,Quality of kitchen,-1,Moderate,Very Bad,direction,2708,,,,,2022-06-21 16:53:32,28934
5dd00a19b51b3e103a6f50c8,ma_choice_v4_observers_real1,5dd00a19b51b3e103a6f50c8,8,Size of home,13,,,wad_att_rating,9796,,,,,2022-06-21 16:53:39,28935
5dd00a19b51b3e103a6f50c8,ma_choice_v4_observers_real1,5dd00a19b51b3e103a6f50c8,6,Quality of heat/AC system,25,,,wad_att_rating,5003,,,,,2022-06-21 16:53:44,28936
5d1e2045a37a4d001a1fc2cb,ma_choice_v4_observers_real1,5d1e2045a37a4d001a1fc2cb,0,Quality of kitchen,1,,,ew_att_rating,16476,,,,,2022-06-21 16:53:47,28937
5d1e2045a37a4d001a1fc2cb,ma_choice_v4_observers_real1,5d1e2045a37a4d001a1fc2cb,0,Noise pollution,1,,,ew_att_rating,16476,,,,,2022-06-21 16:53:47,28938
5d1e2045a37a4d001a1fc2cb,ma_choice_v4_observers_real1,5d1e2045a37a4d001a1fc2cb,0,Quality of heat/AC system,1,,,ew_att_rating,16476,,,,,2022-06-21 16:53:47,28939
5d1e2045a37a4d001a1fc2cb,ma_choice_v4_observers_real1,5d1e2045a37a4d001a1fc2cb,0,Year building was built,1,,,ew_att_rating,16476,,,,,2022-06-21 16:53:47,28940
5dd00a19b51b3e103a6f50c8,ma_choice_v4_observers_real1,5dd00a19b51b3e103a6f50c8,3,Year building was built,0,,,wad_att_rating,7028,,,,,2022-06-21 16:53:51,28941
5dd6d2d11228d9667276c3b7,ma_choice_v4_observers_real1,5dd6d2d11228d9667276c3b7,0,Size of home,1,,,ew_att_rating,13600,,,,,2022-06-21 16:53:53,28942
5dd6d2d11228d9667276c3b7,ma_choice_v4_observers_real1,5dd6d2d11228d9667276c3b7,0,Quality of heat/AC system,1,,,ew_att_rating,13600,,,,,2022-06-21 16:53:53,28943
5dd00a19b51b3e103a6f50c8,ma_choice_v4_observers_real1,5dd00a19b51b3e103a6f50c8,4,Size of yard,25,,,wad_att_rating,4636,,,,,2022-06-21 16:53:55,28944
5d1e2045a37a4d001a1fc2cb,ma_choice_v4_observers_real1,5d1e2045a37a4d001a1fc2cb,8,Size of home,87,,,wad_att_rating,5999,,,,,2022-06-21 16:53:57,28945
5dd00a19b51b3e103a6f50c8,ma_choice_v4_observers_real1,5dd00a19b51b3e103a6f50c8,1,Noise pollution,0,,,wad_att_rating,3819,,,,,2022-06-21 16:53:59,28946
5dd00a19b51b3e103a6f50c8,ma_choice_v4_observers_real1,5dd00a19b51b3e103a6f50c8,5,Quality of kitchen,22,,,wad_att_rating,3275,,,,,2022-06-21 16:54:03,28947
5d1e2045a37a4d001a1fc2cb,ma_choice_v4_observers_real1,5d1e2045a37a4d001a1fc2cb,3,Year building was built,49,,,wad_att_rating,8845,,,,,2022-06-21 16:54:06,28948
5d1e2045a37a4d001a1fc2cb,ma_choice_v4_observers_real1,5d1e2045a37a4d001a1fc2cb,1,Noise pollution,97,,,wad_att_rating,5609,,,,,2022-06-21 16:54:12,28949
5dd00a19b51b3e103a6f50c8,ma_choice_v4_observers_real1,5dd00a19b51b3e103a6f50c8,0,Reputation of closest school,1,,,lex_att_rating,3850,,,,,2022-06-21 16:54:17,28950
5d1e2045a37a4d001a1fc2cb,ma_choice_v4_observers_real1,5d1e2045a37a4d001a1fc2cb,6,Quality of heat/AC system,62,,,wad_att_rating,5566,,,,,2022-06-21 16:54:17,28951
5d1e2045a37a4d001a1fc2cb,ma_choice_v4_observers_real1,5d1e2045a37a4d001a1fc2cb,5,Quality of kitchen,67,,,wad_att_rating,4948,,,,,2022-06-21 16:54:22,28952
5d1e2045a37a4d001a1fc2cb,ma_choice_v4_observers_real1,5d1e2045a37a4d001a1fc2cb,0,Closeness to parks,27,,,wad_att_rating,4309,,,,,2022-06-21 16:54:26,28953
5d1e2045a37a4d001a1fc2cb,ma_choice_v4_observers_real1,5d1e2045a37a4d001a1fc2cb,4,Size of yard,46,,,wad_att_rating,5688,,,,,2022-06-21 16:54:32,28954
5dd00a19b51b3e103a6f50c8,ma_choice_v4_observers_real1,5dd00a19b51b3e103a6f50c8,0,Reputation of closest school,1,,,ew_att_rating,12525,,,,,2022-06-21 16:54:39,28955
5dd00a19b51b3e103a6f50c8,ma_choice_v4_observers_real1,5dd00a19b51b3e103a6f50c8,0,Size of yard,1,,,ew_att_rating,12525,,,,,2022-06-21 16:54:39,28956
5b208c7888ee7400012b63f4,ma_choice_v4_observers_real1,5b208c7888ee7400012b63f4,8,Size of home,-1,1800 square feet,600 square feet,direction,2213,,,,,2022-06-21 16:54:52,28957
5d1e2045a37a4d001a1fc2cb,ma_choice_v4_observers_real1,5d1e2045a37a4d001a1fc2cb,2,Reputation of closest school,31,,,wad_att_rating,26479,,,,,2022-06-21 16:54:59,28958
5b208c7888ee7400012b63f4,ma_choice_v4_observers_real1,5b208c7888ee7400012b63f4,7,Amount of traffic,-1,A Little,A Lot,direction,2313,,,,,2022-06-21 16:55:01,28959
5b208c7888ee7400012b63f4,ma_choice_v4_observers_real1,5b208c7888ee7400012b63f4,0,Closeness to parks,-1,10 min away,30 min away,direction,1901,,,,,2022-06-21 16:55:06,28960
5d1e2045a37a4d001a1fc2cb,ma_choice_v4_observers_real1,5d1e2045a37a4d001a1fc2cb,7,Amount of traffic,34,,,wad_att_rating,7452,,,,,2022-06-21 16:55:06,28961
5b208c7888ee7400012b63f4,ma_choice_v4_observers_real1,5b208c7888ee7400012b63f4,3,Year building was built,-1,1985,2020,direction,2696,,,,,2022-06-21 16:55:14,28962
5b208c7888ee7400012b63f4,ma_choice_v4_observers_real1,5b208c7888ee7400012b63f4,1,Noise pollution,-1,Very Low,Very High,direction,1894,,,,,2022-06-21 16:55:22,28963
60de9c66c01a9de405e9efb0,ma_choice_v4_observers_real1,60de9c66c01a9de405e9efb0,7,Amount of traffic,-1,Very Little,Very Little,direction,5628,,,,,2022-06-21 16:55:23,28964
5d1e2045a37a4d001a1fc2cb,ma_choice_v4_observers_real1,5d1e2045a37a4d001a1fc2cb,0,Noise pollution,1,,,lex_att_rating,5498,,,,,2022-06-21 16:55:25,28965
5b208c7888ee7400012b63f4,ma_choice_v4_observers_real1,5b208c7888ee7400012b63f4,2,Reputation of closest school,-1,Very Good,Very Bad,direction,1262,,,,,2022-06-21 16:55:26,28966
60de9c66c01a9de405e9efb0,ma_choice_v4_observers_real1,60de9c66c01a9de405e9efb0,3,Year building was built,-1,1985,1950,direction,9572,,,,,2022-06-21 16:55:45,28967
5b208c7888ee7400012b63f4,ma_choice_v4_observers_real1,5b208c7888ee7400012b63f4,4,Size of yard,-1,0 square feet,600 square feet,direction,2062,,,,,2022-06-21 16:55:46,28968
5b208c7888ee7400012b63f4,ma_choice_v4_observers_real1,5b208c7888ee7400012b63f4,5,Quality of kitchen,-1,Very Good,Very Bad,direction,1679,,,,,2022-06-21 16:55:59,28969
5b208c7888ee7400012b63f4,ma_choice_v4_observers_real1,5b208c7888ee7400012b63f4,6,Quality of heat/AC system,-1,Very Good,Very Bad,direction,1279,,,,,2022-06-21 16:56:03,28970
5cb553b7a0ccb30017e5b617,ma_choice_v4_observers_real1,5cb553b7a0ccb30017e5b617,0,Closeness to parks,-1,10 min away,30 min away,direction,3229,,,,,2022-06-21 16:56:17,28971
5dd00a19b51b3e103a6f50c8,ma_choice_v4_observers_real1,5dd00a19b51b3e103a6f50c8,8,Size of home,-1,1200 square feet,600 square feet,direction,21063,,,,,2022-06-21 16:56:26,28972
5cb553b7a0ccb30017e5b617,ma_choice_v4_observers_real1,5cb553b7a0ccb30017e5b617,7,Amount of traffic,-1,Very Little,A Lot,direction,3063,,,,,2022-06-21 16:56:30,28973
5dd00a19b51b3e103a6f50c8,ma_choice_v4_observers_real1,5dd00a19b51b3e103a6f50c8,4,Size of yard,-1,600 square feet,0 square feet,direction,3331,,,,,2022-06-21 16:56:36,28974
5cb553b7a0ccb30017e5b617,ma_choice_v4_observers_real1,5cb553b7a0ccb30017e5b617,5,Quality of kitchen,-1,Very Good,Very Bad,direction,3606,,,,,2022-06-21 16:56:43,28975
5dd00a19b51b3e103a6f50c8,ma_choice_v4_observers_real1,5dd00a19b51b3e103a6f50c8,5,Quality of kitchen,-1,Very Good,Very Bad,direction,3714,,,,,2022-06-21 16:56:44,28976
611eb5db46ee495d60b16aae,ma_choice_v4_observers_real1,611eb5db46ee495d60b16aae,0,Closeness to parks,1,,,ew_att_rating,13954,,,,,2022-06-21 16:56:53,28977
611eb5db46ee495d60b16aae,ma_choice_v4_observers_real1,611eb5db46ee495d60b16aae,0,Quality of kitchen,1,,,ew_att_rating,13954,,,,,2022-06-21 16:56:53,28978
611eb5db46ee495d60b16aae,ma_choice_v4_observers_real1,611eb5db46ee495d60b16aae,0,Noise pollution,1,,,ew_att_rating,13954,,,,,2022-06-21 16:56:53,28979
611eb5db46ee495d60b16aae,ma_choice_v4_observers_real1,611eb5db46ee495d60b16aae,0,Quality of heat/AC system,1,,,ew_att_rating,13954,,,,,2022-06-21 16:56:53,28980
611eb5db46ee495d60b16aae,ma_choice_v4_observers_real1,611eb5db46ee495d60b16aae,0,Amount of traffic,1,,,ew_att_rating,13954,,,,,2022-06-21 16:56:53,28981
5cb553b7a0ccb30017e5b617,ma_choice_v4_observers_real1,5cb553b7a0ccb30017e5b617,4,Size of yard,-1,600 square feet,0 square feet,direction,3220,,,,,2022-06-21 16:56:53,28982
5dd00a19b51b3e103a6f50c8,ma_choice_v4_observers_real1,5dd00a19b51b3e103a6f50c8,2,Reputation of closest school,-1,Very Good,Very Bad,direction,3216,,,,,2022-06-21 16:56:53,28983
611eb5db46ee495d60b16aae,ma_choice_v4_observers_real1,611eb5db46ee495d60b16aae,0,Quality of heat/AC system,1,,,lex_att_rating,2518,,,,,2022-06-21 16:56:59,28984
5cb553b7a0ccb30017e5b617,ma_choice_v4_observers_real1,5cb553b7a0ccb30017e5b617,1,Noise pollution,-1,Very Low,Very High,direction,3250,,,,,2022-06-21 16:57:02,28985
611eb5db46ee495d60b16aae,ma_choice_v4_observers_real1,611eb5db46ee495d60b16aae,1,Noise pollution,87,,,wad_att_rating,6186,,,,,2022-06-21 16:57:08,28986
5dd00a19b51b3e103a6f50c8,ma_choice_v4_observers_real1,5dd00a19b51b3e103a6f50c8,7,Amount of traffic,-1,A Little,A Lot,direction,4520,,,,,2022-06-21 16:57:08,28987
5cb553b7a0ccb30017e5b617,ma_choice_v4_observers_real1,5cb553b7a0ccb30017e5b617,2,Reputation of closest school,-1,Very Good,Very Bad,direction,3215,,,,,2022-06-21 16:57:11,28988
611eb5db46ee495d60b16aae,ma_choice_v4_observers_real1,611eb5db46ee495d60b16aae,0,Closeness to parks,75,,,wad_att_rating,4551,,,,,2022-06-21 16:57:13,28989
5dd00a19b51b3e103a6f50c8,ma_choice_v4_observers_real1,5dd00a19b51b3e103a6f50c8,0,Closeness to parks,-1,10 min away,30 min away,direction,2747,,,,,2022-06-21 16:57:18,28990
611eb5db46ee495d60b16aae,ma_choice_v4_observers_real1,611eb5db46ee495d60b16aae,8,Size of home,49,,,wad_att_rating,7271,,,,,2022-06-21 16:57:20,28991
5cb553b7a0ccb30017e5b617,ma_choice_v4_observers_real1,5cb553b7a0ccb30017e5b617,3,Year building was built,-1,2020,1950,direction,2748,,,,,2022-06-21 16:57:23,28992
611eb5db46ee495d60b16aae,ma_choice_v4_observers_real1,611eb5db46ee495d60b16aae,5,Quality of kitchen,75,,,wad_att_rating,4101,,,,,2022-06-21 16:57:24,28993
5dd00a19b51b3e103a6f50c8,ma_choice_v4_observers_real1,5dd00a19b51b3e103a6f50c8,1,Noise pollution,-1,Very Low,Very High,direction,2698,,,,,2022-06-21 16:57:24,28994
611eb5db46ee495d60b16aae,ma_choice_v4_observers_real1,611eb5db46ee495d60b16aae,4,Size of yard,37,,,wad_att_rating,3566,,,,,2022-06-21 16:57:27,28995
5dd00a19b51b3e103a6f50c8,ma_choice_v4_observers_real1,5dd00a19b51b3e103a6f50c8,6,Quality of heat/AC system,-1,Very Good,Very Bad,direction,2790,,,,,2022-06-21 16:57:31,28996
5cb553b7a0ccb30017e5b617,ma_choice_v4_observers_real1,5cb553b7a0ccb30017e5b617,6,Quality of heat/AC system,-1,Very Good,Very Bad,direction,3134,,,,,2022-06-21 16:57:31,28997
5ac560359534ba0001c74715,ma_choice_v4_observers_real1,5ac560359534ba0001c74715,0,Size of home,1,,,ew_att_rating,17317,,,,,2022-06-21 16:57:31,28998
5ac560359534ba0001c74715,ma_choice_v4_observers_real1,5ac560359534ba0001c74715,0,Reputation of closest school,1,,,ew_att_rating,17317,,,,,2022-06-21 16:57:31,28999
611eb5db46ee495d60b16aae,ma_choice_v4_observers_real1,611eb5db46ee495d60b16aae,7,Amount of traffic,26,,,wad_att_rating,3968,,,,,2022-06-21 16:57:31,29000
611eb5db46ee495d60b16aae,ma_choice_v4_observers_real1,611eb5db46ee495d60b16aae,6,Quality of heat/AC system,96,,,wad_att_rating,6869,,,,,2022-06-21 16:57:38,29001
5e1e935be3c7191e0519b486,ma_choice_v4_observers_real1,5e1e935be3c7191e0519b486,0,Size of home,1,,,lex_att_rating,11141,,,,,2022-06-21 16:57:38,29002
5cb553b7a0ccb30017e5b617,ma_choice_v4_observers_real1,5cb553b7a0ccb30017e5b617,8,Size of home,-1,1800 square feet,600 square feet,direction,2941,,,,,2022-06-21 16:57:40,29003
5dd00a19b51b3e103a6f50c8,ma_choice_v4_observers_real1,5dd00a19b51b3e103a6f50c8,3,Year building was built,-1,2020,1950,direction,2953,,,,,2022-06-21 16:57:41,29004
611eb5db46ee495d60b16aae,ma_choice_v4_observers_real1,611eb5db46ee495d60b16aae,2,Reputation of closest school,2,,,wad_att_rating,3217,,,,,2022-06-21 16:57:42,29005
60de9c66c01a9de405e9efb0,ma_choice_v4_observers_real1,60de9c66c01a9de405e9efb0,5,Quality of kitchen,-1,Moderate,Moderate,direction,109027,,,,,2022-06-21 16:57:43,29006
611eb5db46ee495d60b16aae,ma_choice_v4_observers_real1,611eb5db46ee495d60b16aae,3,Year building was built,2,,,wad_att_rating,2601,,,,,2022-06-21 16:57:44,29007
5ac560359534ba0001c74715,ma_choice_v4_observers_real1,5ac560359534ba0001c74715,0,Reputation of closest school,1,,,lex_att_rating,4668,,,,,2022-06-21 16:57:45,29008
60fcec18d6375fa348df55f8,ma_choice_v4_observers_real1,60fcec18d6375fa348df55f8,0,Quality of heat/AC system,1,,,ew_att_rating,13283,,,,,2022-06-21 16:57:49,29009
60fcec18d6375fa348df55f8,ma_choice_v4_observers_real1,60fcec18d6375fa348df55f8,0,Reputation of closest school,1,,,ew_att_rating,13283,,,,,2022-06-21 16:57:49,29010
60fcec18d6375fa348df55f8,ma_choice_v4_observers_real1,60fcec18d6375fa348df55f8,0,Quality of kitchen,1,,,ew_att_rating,13283,,,,,2022-06-21 16:57:49,29011
60de9c66c01a9de405e9efb0,ma_choice_v4_observers_real1,60de9c66c01a9de405e9efb0,6,Quality of heat/AC system,-1,Moderate,Moderate,direction,2588,,,,,2022-06-21 16:57:50,29012
5ac560359534ba0001c74715,ma_choice_v4_observers_real1,5ac560359534ba0001c74715,3,Year building was built,0,,,wad_att_rating,4416,,,,,2022-06-21 16:57:52,29013
5e1e935be3c7191e0519b486,ma_choice_v4_observers_real1,5e1e935be3c7191e0519b486,3,Year building was built,50,,,wad_att_rating,5902,,,,,2022-06-21 16:57:53,29014
5ac560359534ba0001c74715,ma_choice_v4_observers_real1,5ac560359534ba0001c74715,5,Quality of kitchen,10,,,wad_att_rating,2874,,,,,2022-06-21 16:57:55,29015
5e1e935be3c7191e0519b486,ma_choice_v4_observers_real1,5e1e935be3c7191e0519b486,7,Amount of traffic,49,,,wad_att_rating,2390,,,,,2022-06-21 16:57:56,29016
5e1e935be3c7191e0519b486,ma_choice_v4_observers_real1,5e1e935be3c7191e0519b486,1,Noise pollution,49,,,wad_att_rating,1787,,,,,2022-06-21 16:57:57,29017
5ac560359534ba0001c74715,ma_choice_v4_observers_real1,5ac560359534ba0001c74715,1,Noise pollution,4,,,wad_att_rating,2398,,,,,2022-06-21 16:57:58,29018
60de9c66c01a9de405e9efb0,ma_choice_v4_observers_real1,60de9c66c01a9de405e9efb0,2,Reputation of closest school,-1,Moderate,Moderate,direction,6064,,,,,2022-06-21 16:57:59,29019
5e1e935be3c7191e0519b486,ma_choice_v4_observers_real1,5e1e935be3c7191e0519b486,2,Reputation of closest school,49,,,wad_att_rating,1866,,,,,2022-06-21 16:57:59,29020
