subject,version,assignmentId,trial,attribute,rating,least_preferred,most_preferred,type,rt,rt2,full_or_lex,signed_weights,original_or_followup,stamp,id
559c3ad8fdf99b32b55f2d32,ma_choice_v4_movies_real1,559c3ad8fdf99b32b55f2d32,0,artistic,13,,,wad_att_rating,9470,,,,,2022-06-27 13:35:18,40298
559c3ad8fdf99b32b55f2d32,ma_choice_v4_movies_real1,559c3ad8fdf99b32b55f2d32,5,plot,24,,,wad_att_rating,2600,,,,,2022-06-27 13:35:21,40299
559c3ad8fdf99b32b55f2d32,ma_choice_v4_movies_real1,559c3ad8fdf99b32b55f2d32,2,romantic,25,,,wad_att_rating,3153,,,,,2022-06-27 13:35:24,40300
559c3ad8fdf99b32b55f2d32,ma_choice_v4_movies_real1,559c3ad8fdf99b32b55f2d32,8,good action,26,,,wad_att_rating,2426,,,,,2022-06-27 13:35:26,40301
559c3ad8fdf99b32b55f2d32,ma_choice_v4_movies_real1,559c3ad8fdf99b32b55f2d32,7,awesome soundtrack,13,,,wad_att_rating,2224,,,,,2022-06-27 13:35:29,40302
559c3ad8fdf99b32b55f2d32,ma_choice_v4_movies_real1,559c3ad8fdf99b32b55f2d32,1,funny,64,,,wad_att_rating,2405,,,,,2022-06-27 13:35:31,40303
559c3ad8fdf99b32b55f2d32,ma_choice_v4_movies_real1,559c3ad8fdf99b32b55f2d32,3,visual,49,,,wad_att_rating,3291,,,,,2022-06-27 13:35:34,40304
559c3ad8fdf99b32b55f2d32,ma_choice_v4_movies_real1,559c3ad8fdf99b32b55f2d32,4,great acting,48,,,wad_att_rating,2356,,,,,2022-06-27 13:35:37,40305
559c3ad8fdf99b32b55f2d32,ma_choice_v4_movies_real1,559c3ad8fdf99b32b55f2d32,6,dialogue,48,,,wad_att_rating,2472,,,,,2022-06-27 13:35:39,40306
559c3ad8fdf99b32b55f2d32,ma_choice_v4_movies_real1,559c3ad8fdf99b32b55f2d32,0,Humor,1,,,ew_att_rating,6412,,,,,2022-06-27 13:35:50,40307
559c3ad8fdf99b32b55f2d32,ma_choice_v4_movies_real1,559c3ad8fdf99b32b55f2d32,0,Humor,1,,,lex_att_rating,4202,,,,,2022-06-27 13:35:59,40308
559c3ad8fdf99b32b55f2d32,ma_choice_v4_movies_real1,559c3ad8fdf99b32b55f2d32,0,visual,1,Very Bad,Very Good,direction,10249,,,,,2022-06-27 13:36:30,40309
559c3ad8fdf99b32b55f2d32,ma_choice_v4_movies_real1,559c3ad8fdf99b32b55f2d32,0,visual,1,Very Bad,Bad,direction,6497,,,,,2022-06-27 13:36:37,40310
559c3ad8fdf99b32b55f2d32,ma_choice_v4_movies_real1,559c3ad8fdf99b32b55f2d32,0,visual,1,Bad,Moderate,direction,3749,,,,,2022-06-27 13:36:41,40311
559c3ad8fdf99b32b55f2d32,ma_choice_v4_movies_real1,559c3ad8fdf99b32b55f2d32,0,visual,1,Moderate,Good,direction,1970,,,,,2022-06-27 13:36:43,40312
559c3ad8fdf99b32b55f2d32,ma_choice_v4_movies_real1,559c3ad8fdf99b32b55f2d32,0,visual,1,Good,Very Good,direction,2021,,,,,2022-06-27 13:36:45,40313
559c3ad8fdf99b32b55f2d32,ma_choice_v4_movies_real1,559c3ad8fdf99b32b55f2d32,1,artistic,1,Very Bad,Very Good,direction,2241,,,,,2022-06-27 13:36:48,40314
559c3ad8fdf99b32b55f2d32,ma_choice_v4_movies_real1,559c3ad8fdf99b32b55f2d32,1,artistic,1,Very Bad,Bad,direction,2782,,,,,2022-06-27 13:36:51,40315
559c3ad8fdf99b32b55f2d32,ma_choice_v4_movies_real1,559c3ad8fdf99b32b55f2d32,1,artistic,1,Bad,Moderate,direction,2687,,,,,2022-06-27 13:36:54,40316
559c3ad8fdf99b32b55f2d32,ma_choice_v4_movies_real1,559c3ad8fdf99b32b55f2d32,1,artistic,1,Moderate,Good,direction,2208,,,,,2022-06-27 13:36:56,40317
559c3ad8fdf99b32b55f2d32,ma_choice_v4_movies_real1,559c3ad8fdf99b32b55f2d32,1,artistic,1,Good,Very Good,direction,2302,,,,,2022-06-27 13:36:58,40318
559c3ad8fdf99b32b55f2d32,ma_choice_v4_movies_real1,559c3ad8fdf99b32b55f2d32,2,funny,1,Very Bad,Very Good,direction,1925,,,,,2022-06-27 13:37:01,40319
559c3ad8fdf99b32b55f2d32,ma_choice_v4_movies_real1,559c3ad8fdf99b32b55f2d32,2,funny,1,Very Bad,Bad,direction,1969,,,,,2022-06-27 13:37:03,40320
559c3ad8fdf99b32b55f2d32,ma_choice_v4_movies_real1,559c3ad8fdf99b32b55f2d32,2,funny,1,Bad,Moderate,direction,2087,,,,,2022-06-27 13:37:05,40321
559c3ad8fdf99b32b55f2d32,ma_choice_v4_movies_real1,559c3ad8fdf99b32b55f2d32,2,funny,1,Moderate,Good,direction,1957,,,,,2022-06-27 13:37:07,40322
559c3ad8fdf99b32b55f2d32,ma_choice_v4_movies_real1,559c3ad8fdf99b32b55f2d32,2,funny,1,Good,Very Good,direction,2196,,,,,2022-06-27 13:37:10,40323
559c3ad8fdf99b32b55f2d32,ma_choice_v4_movies_real1,559c3ad8fdf99b32b55f2d32,3,awesome soundtrack,1,Very Bad,Very Good,direction,2104,,,,,2022-06-27 13:37:13,40324
559c3ad8fdf99b32b55f2d32,ma_choice_v4_movies_real1,559c3ad8fdf99b32b55f2d32,3,awesome soundtrack,1,Very Bad,Bad,direction,1722,,,,,2022-06-27 13:37:14,40325
559c3ad8fdf99b32b55f2d32,ma_choice_v4_movies_real1,559c3ad8fdf99b32b55f2d32,3,awesome soundtrack,1,Bad,Moderate,direction,2419,,,,,2022-06-27 13:37:17,40326
559c3ad8fdf99b32b55f2d32,ma_choice_v4_movies_real1,559c3ad8fdf99b32b55f2d32,3,awesome soundtrack,1,Moderate,Good,direction,1788,,,,,2022-06-27 13:37:19,40327
559c3ad8fdf99b32b55f2d32,ma_choice_v4_movies_real1,559c3ad8fdf99b32b55f2d32,3,awesome soundtrack,1,Good,Very Good,direction,1820,,,,,2022-06-27 13:37:21,40328
559c3ad8fdf99b32b55f2d32,ma_choice_v4_movies_real1,559c3ad8fdf99b32b55f2d32,4,dialogue,1,Very Bad,Very Good,direction,1648,,,,,2022-06-27 13:37:23,40329
559c3ad8fdf99b32b55f2d32,ma_choice_v4_movies_real1,559c3ad8fdf99b32b55f2d32,4,dialogue,1,Very Bad,Bad,direction,1562,,,,,2022-06-27 13:37:25,40330
559c3ad8fdf99b32b55f2d32,ma_choice_v4_movies_real1,559c3ad8fdf99b32b55f2d32,4,dialogue,1,Bad,Moderate,direction,1824,,,,,2022-06-27 13:37:26,40331
559c3ad8fdf99b32b55f2d32,ma_choice_v4_movies_real1,559c3ad8fdf99b32b55f2d32,4,dialogue,1,Moderate,Good,direction,1858,,,,,2022-06-27 13:37:28,40332
559c3ad8fdf99b32b55f2d32,ma_choice_v4_movies_real1,559c3ad8fdf99b32b55f2d32,4,dialogue,1,Good,Very Good,direction,2661,,,,,2022-06-27 13:37:31,40333
559c3ad8fdf99b32b55f2d32,ma_choice_v4_movies_real1,559c3ad8fdf99b32b55f2d32,5,good action,1,Very Bad,Very Good,direction,2369,,,,,2022-06-27 13:37:34,40334
559c3ad8fdf99b32b55f2d32,ma_choice_v4_movies_real1,559c3ad8fdf99b32b55f2d32,5,good action,1,Very Bad,Bad,direction,1934,,,,,2022-06-27 13:37:36,40335
559c3ad8fdf99b32b55f2d32,ma_choice_v4_movies_real1,559c3ad8fdf99b32b55f2d32,5,good action,1,Bad,Moderate,direction,2088,,,,,2022-06-27 13:37:38,40336
559c3ad8fdf99b32b55f2d32,ma_choice_v4_movies_real1,559c3ad8fdf99b32b55f2d32,5,good action,1,Moderate,Good,direction,1698,,,,,2022-06-27 13:37:40,40337
559c3ad8fdf99b32b55f2d32,ma_choice_v4_movies_real1,559c3ad8fdf99b32b55f2d32,5,good action,1,Good,Very Good,direction,1821,,,,,2022-06-27 13:37:42,40338
559c3ad8fdf99b32b55f2d32,ma_choice_v4_movies_real1,559c3ad8fdf99b32b55f2d32,6,great acting,1,Very Bad,Very Good,direction,3695,,,,,2022-06-27 13:37:47,40339
559c3ad8fdf99b32b55f2d32,ma_choice_v4_movies_real1,559c3ad8fdf99b32b55f2d32,6,great acting,1,Very Bad,Bad,direction,1822,,,,,2022-06-27 13:37:49,40340
559c3ad8fdf99b32b55f2d32,ma_choice_v4_movies_real1,559c3ad8fdf99b32b55f2d32,6,great acting,1,Bad,Moderate,direction,2184,,,,,2022-06-27 13:37:51,40341
559c3ad8fdf99b32b55f2d32,ma_choice_v4_movies_real1,559c3ad8fdf99b32b55f2d32,6,great acting,1,Moderate,Good,direction,2220,,,,,2022-06-27 13:37:53,40342
559c3ad8fdf99b32b55f2d32,ma_choice_v4_movies_real1,559c3ad8fdf99b32b55f2d32,6,great acting,1,Good,Very Good,direction,2869,,,,,2022-06-27 13:37:56,40343
559c3ad8fdf99b32b55f2d32,ma_choice_v4_movies_real1,559c3ad8fdf99b32b55f2d32,7,romantic,1,Very Bad,Very Good,direction,2059,,,,,2022-06-27 13:37:59,40344
559c3ad8fdf99b32b55f2d32,ma_choice_v4_movies_real1,559c3ad8fdf99b32b55f2d32,7,romantic,1,Very Bad,Bad,direction,1543,,,,,2022-06-27 13:38:01,40345
559c3ad8fdf99b32b55f2d32,ma_choice_v4_movies_real1,559c3ad8fdf99b32b55f2d32,7,romantic,1,Bad,Moderate,direction,1998,,,,,2022-06-27 13:38:03,40346
559c3ad8fdf99b32b55f2d32,ma_choice_v4_movies_real1,559c3ad8fdf99b32b55f2d32,7,romantic,1,Moderate,Good,direction,1590,,,,,2022-06-27 13:38:04,40347
559c3ad8fdf99b32b55f2d32,ma_choice_v4_movies_real1,559c3ad8fdf99b32b55f2d32,7,romantic,1,Good,Very Good,direction,1892,,,,,2022-06-27 13:38:06,40348
559c3ad8fdf99b32b55f2d32,ma_choice_v4_movies_real1,559c3ad8fdf99b32b55f2d32,8,plot,1,Very Bad,Very Good,direction,1706,,,,,2022-06-27 13:38:09,40349
559c3ad8fdf99b32b55f2d32,ma_choice_v4_movies_real1,559c3ad8fdf99b32b55f2d32,8,plot,1,Very Bad,Bad,direction,1637,,,,,2022-06-27 13:38:11,40350
559c3ad8fdf99b32b55f2d32,ma_choice_v4_movies_real1,559c3ad8fdf99b32b55f2d32,8,plot,1,Bad,Moderate,direction,2033,,,,,2022-06-27 13:38:13,40351
559c3ad8fdf99b32b55f2d32,ma_choice_v4_movies_real1,559c3ad8fdf99b32b55f2d32,8,plot,1,Moderate,Good,direction,1440,,,,,2022-06-27 13:38:14,40352
559c3ad8fdf99b32b55f2d32,ma_choice_v4_movies_real1,559c3ad8fdf99b32b55f2d32,8,plot,1,Good,Very Good,direction,2381,,,,,2022-06-27 13:38:16,40353
5de7d12c26dd95000b6824c5,ma_choice_v4_movies_real1,5de7d12c26dd95000b6824c5,1,funny,12,,,wad_att_rating,5721,,,,,2022-06-27 13:47:59,40354
5de7d12c26dd95000b6824c5,ma_choice_v4_movies_real1,5de7d12c26dd95000b6824c5,8,good action,19,,,wad_att_rating,7840,,,,,2022-06-27 13:48:07,40355
5de7d12c26dd95000b6824c5,ma_choice_v4_movies_real1,5de7d12c26dd95000b6824c5,5,plot,93,,,wad_att_rating,5754,,,,,2022-06-27 13:48:12,40356
5de7d12c26dd95000b6824c5,ma_choice_v4_movies_real1,5de7d12c26dd95000b6824c5,2,romantic,9,,,wad_att_rating,4123,,,,,2022-06-27 13:48:17,40357
5de7d12c26dd95000b6824c5,ma_choice_v4_movies_real1,5de7d12c26dd95000b6824c5,3,visual,46,,,wad_att_rating,5558,,,,,2022-06-27 13:48:22,40358
5de7d12c26dd95000b6824c5,ma_choice_v4_movies_real1,5de7d12c26dd95000b6824c5,7,awesome soundtrack,6,,,wad_att_rating,3444,,,,,2022-06-27 13:48:26,40359
5de7d12c26dd95000b6824c5,ma_choice_v4_movies_real1,5de7d12c26dd95000b6824c5,0,artistic,84,,,wad_att_rating,6467,,,,,2022-06-27 13:48:32,40360
5de7d12c26dd95000b6824c5,ma_choice_v4_movies_real1,5de7d12c26dd95000b6824c5,6,dialogue,74,,,wad_att_rating,4613,,,,,2022-06-27 13:48:37,40361
5de7d12c26dd95000b6824c5,ma_choice_v4_movies_real1,5de7d12c26dd95000b6824c5,4,great acting,67,,,wad_att_rating,4362,,,,,2022-06-27 13:48:41,40362
5de7d12c26dd95000b6824c5,ma_choice_v4_movies_real1,5de7d12c26dd95000b6824c5,0,Acting,1,,,ew_att_rating,11038,,,,,2022-06-27 13:49:04,40363
5de7d12c26dd95000b6824c5,ma_choice_v4_movies_real1,5de7d12c26dd95000b6824c5,0,Dialogue,1,,,ew_att_rating,11038,,,,,2022-06-27 13:49:04,40364
5de7d12c26dd95000b6824c5,ma_choice_v4_movies_real1,5de7d12c26dd95000b6824c5,0,Creativity,1,,,ew_att_rating,11038,,,,,2022-06-27 13:49:04,40365
5de7d12c26dd95000b6824c5,ma_choice_v4_movies_real1,5de7d12c26dd95000b6824c5,0,Plot,1,,,ew_att_rating,11038,,,,,2022-06-27 13:49:04,40366
5de7d12c26dd95000b6824c5,ma_choice_v4_movies_real1,5de7d12c26dd95000b6824c5,0,Plot,1,,,lex_att_rating,3998,,,,,2022-06-27 13:49:15,40367
5de7d12c26dd95000b6824c5,ma_choice_v4_movies_real1,5de7d12c26dd95000b6824c5,0,visual,1,Very Bad,Very Good,direction,20553,,,,,2022-06-27 13:50:19,40368
5de7d12c26dd95000b6824c5,ma_choice_v4_movies_real1,5de7d12c26dd95000b6824c5,0,visual,1,Very Bad,Bad,direction,15420,,,,,2022-06-27 13:50:34,40369
5de7d12c26dd95000b6824c5,ma_choice_v4_movies_real1,5de7d12c26dd95000b6824c5,0,visual,1,Bad,Moderate,direction,7376,,,,,2022-06-27 13:50:42,40370
5de7d12c26dd95000b6824c5,ma_choice_v4_movies_real1,5de7d12c26dd95000b6824c5,0,visual,1,Moderate,Good,direction,3595,,,,,2022-06-27 13:50:45,40371
5de7d12c26dd95000b6824c5,ma_choice_v4_movies_real1,5de7d12c26dd95000b6824c5,0,visual,1,Good,Very Good,direction,3619,,,,,2022-06-27 13:50:49,40372
5de7d12c26dd95000b6824c5,ma_choice_v4_movies_real1,5de7d12c26dd95000b6824c5,1,plot,1,Very Bad,Very Good,direction,5537,,,,,2022-06-27 13:50:57,40373
5de7d12c26dd95000b6824c5,ma_choice_v4_movies_real1,5de7d12c26dd95000b6824c5,1,plot,1,Very Bad,Bad,direction,7375,,,,,2022-06-27 13:51:04,40374
5de7d12c26dd95000b6824c5,ma_choice_v4_movies_real1,5de7d12c26dd95000b6824c5,1,plot,1,Bad,Moderate,direction,4016,,,,,2022-06-27 13:51:08,40375
5de7d12c26dd95000b6824c5,ma_choice_v4_movies_real1,5de7d12c26dd95000b6824c5,1,plot,1,Moderate,Good,direction,2497,,,,,2022-06-27 13:51:10,40376
5de7d12c26dd95000b6824c5,ma_choice_v4_movies_real1,5de7d12c26dd95000b6824c5,1,plot,1,Good,Very Good,direction,3041,,,,,2022-06-27 13:51:14,40377
5de7d12c26dd95000b6824c5,ma_choice_v4_movies_real1,5de7d12c26dd95000b6824c5,2,funny,1,Very Bad,Very Good,direction,4764,,,,,2022-06-27 13:51:20,40378
5de7d12c26dd95000b6824c5,ma_choice_v4_movies_real1,5de7d12c26dd95000b6824c5,2,funny,1,Very Bad,Bad,direction,2452,,,,,2022-06-27 13:51:22,40379
5de7d12c26dd95000b6824c5,ma_choice_v4_movies_real1,5de7d12c26dd95000b6824c5,2,funny,1,Bad,Moderate,direction,3203,,,,,2022-06-27 13:51:26,40380
5de7d12c26dd95000b6824c5,ma_choice_v4_movies_real1,5de7d12c26dd95000b6824c5,2,funny,1,Moderate,Good,direction,2494,,,,,2022-06-27 13:51:28,40381
5de7d12c26dd95000b6824c5,ma_choice_v4_movies_real1,5de7d12c26dd95000b6824c5,2,funny,1,Good,Very Good,direction,2388,,,,,2022-06-27 13:51:30,40382
5de7d12c26dd95000b6824c5,ma_choice_v4_movies_real1,5de7d12c26dd95000b6824c5,3,romantic,1,Very Bad,Very Good,direction,3637,,,,,2022-06-27 13:51:36,40383
5de7d12c26dd95000b6824c5,ma_choice_v4_movies_real1,5de7d12c26dd95000b6824c5,3,romantic,1,Very Bad,Bad,direction,3527,,,,,2022-06-27 13:51:39,40384
5de7d12c26dd95000b6824c5,ma_choice_v4_movies_real1,5de7d12c26dd95000b6824c5,3,romantic,1,Bad,Moderate,direction,2861,,,,,2022-06-27 13:51:42,40385
5de7d12c26dd95000b6824c5,ma_choice_v4_movies_real1,5de7d12c26dd95000b6824c5,3,romantic,1,Moderate,Good,direction,2371,,,,,2022-06-27 13:51:44,40386
5de7d12c26dd95000b6824c5,ma_choice_v4_movies_real1,5de7d12c26dd95000b6824c5,3,romantic,1,Good,Very Good,direction,2515,,,,,2022-06-27 13:51:47,40387
5de7d12c26dd95000b6824c5,ma_choice_v4_movies_real1,5de7d12c26dd95000b6824c5,4,dialogue,1,Very Bad,Very Good,direction,3019,,,,,2022-06-27 13:51:51,40388
5de7d12c26dd95000b6824c5,ma_choice_v4_movies_real1,5de7d12c26dd95000b6824c5,4,dialogue,1,Very Bad,Bad,direction,2242,,,,,2022-06-27 13:51:54,40389
5de7d12c26dd95000b6824c5,ma_choice_v4_movies_real1,5de7d12c26dd95000b6824c5,4,dialogue,1,Bad,Moderate,direction,2450,,,,,2022-06-27 13:51:56,40390
5de7d12c26dd95000b6824c5,ma_choice_v4_movies_real1,5de7d12c26dd95000b6824c5,4,dialogue,1,Moderate,Good,direction,2622,,,,,2022-06-27 13:51:59,40391
5de7d12c26dd95000b6824c5,ma_choice_v4_movies_real1,5de7d12c26dd95000b6824c5,4,dialogue,1,Good,Very Good,direction,2287,,,,,2022-06-27 13:52:01,40392
5de7d12c26dd95000b6824c5,ma_choice_v4_movies_real1,5de7d12c26dd95000b6824c5,5,good action,1,Very Bad,Very Good,direction,2672,,,,,2022-06-27 13:52:05,40393
5de7d12c26dd95000b6824c5,ma_choice_v4_movies_real1,5de7d12c26dd95000b6824c5,5,good action,1,Very Bad,Bad,direction,2295,,,,,2022-06-27 13:52:07,40394
5de7d12c26dd95000b6824c5,ma_choice_v4_movies_real1,5de7d12c26dd95000b6824c5,5,good action,1,Bad,Moderate,direction,2282,,,,,2022-06-27 13:52:10,40395
5de7d12c26dd95000b6824c5,ma_choice_v4_movies_real1,5de7d12c26dd95000b6824c5,5,good action,1,Moderate,Good,direction,2298,,,,,2022-06-27 13:52:12,40396
5de7d12c26dd95000b6824c5,ma_choice_v4_movies_real1,5de7d12c26dd95000b6824c5,5,good action,1,Good,Very Good,direction,2528,,,,,2022-06-27 13:52:14,40397
5de7d12c26dd95000b6824c5,ma_choice_v4_movies_real1,5de7d12c26dd95000b6824c5,6,artistic,1,Very Bad,Very Good,direction,2490,,,,,2022-06-27 13:52:19,40398
5de7d12c26dd95000b6824c5,ma_choice_v4_movies_real1,5de7d12c26dd95000b6824c5,6,artistic,1,Very Bad,Bad,direction,2274,,,,,2022-06-27 13:52:21,40399
5de7d12c26dd95000b6824c5,ma_choice_v4_movies_real1,5de7d12c26dd95000b6824c5,6,artistic,1,Bad,Moderate,direction,2413,,,,,2022-06-27 13:52:23,40400
5de7d12c26dd95000b6824c5,ma_choice_v4_movies_real1,5de7d12c26dd95000b6824c5,6,artistic,1,Moderate,Good,direction,2129,,,,,2022-06-27 13:52:26,40401
5de7d12c26dd95000b6824c5,ma_choice_v4_movies_real1,5de7d12c26dd95000b6824c5,6,artistic,1,Good,Very Good,direction,2304,,,,,2022-06-27 13:52:28,40402
5de7d12c26dd95000b6824c5,ma_choice_v4_movies_real1,5de7d12c26dd95000b6824c5,7,great acting,1,Very Bad,Very Good,direction,2325,,,,,2022-06-27 13:52:32,40403
5de7d12c26dd95000b6824c5,ma_choice_v4_movies_real1,5de7d12c26dd95000b6824c5,7,great acting,1,Very Bad,Bad,direction,2268,,,,,2022-06-27 13:52:34,40404
5de7d12c26dd95000b6824c5,ma_choice_v4_movies_real1,5de7d12c26dd95000b6824c5,7,great acting,1,Bad,Moderate,direction,2138,,,,,2022-06-27 13:52:36,40405
5de7d12c26dd95000b6824c5,ma_choice_v4_movies_real1,5de7d12c26dd95000b6824c5,7,great acting,1,Moderate,Good,direction,2248,,,,,2022-06-27 13:52:38,40406
5de7d12c26dd95000b6824c5,ma_choice_v4_movies_real1,5de7d12c26dd95000b6824c5,7,great acting,1,Good,Very Good,direction,2243,,,,,2022-06-27 13:52:41,40407
5de7d12c26dd95000b6824c5,ma_choice_v4_movies_real1,5de7d12c26dd95000b6824c5,8,awesome soundtrack,1,Very Bad,Very Good,direction,2755,,,,,2022-06-27 13:52:45,40408
5de7d12c26dd95000b6824c5,ma_choice_v4_movies_real1,5de7d12c26dd95000b6824c5,8,awesome soundtrack,1,Very Bad,Bad,direction,2349,,,,,2022-06-27 13:52:47,40409
5de7d12c26dd95000b6824c5,ma_choice_v4_movies_real1,5de7d12c26dd95000b6824c5,8,awesome soundtrack,1,Bad,Moderate,direction,2121,,,,,2022-06-27 13:52:49,40410
5de7d12c26dd95000b6824c5,ma_choice_v4_movies_real1,5de7d12c26dd95000b6824c5,8,awesome soundtrack,1,Moderate,Good,direction,2153,,,,,2022-06-27 13:52:51,40411
5de7d12c26dd95000b6824c5,ma_choice_v4_movies_real1,5de7d12c26dd95000b6824c5,8,awesome soundtrack,1,Good,Very Good,direction,2181,,,,,2022-06-27 13:52:54,40412
5a78e410ae9a0b0001a97274,ma_choice_v4_movies_real1,5a78e410ae9a0b0001a97274,0,Acting,1,,,lex_att_rating,7692,,,,,2022-06-27 13:53:48,40413
5a78e410ae9a0b0001a97274,ma_choice_v4_movies_real1,5a78e410ae9a0b0001a97274,0,Visuals,1,,,ew_att_rating,7886,,,,,2022-06-27 13:53:59,40414
5a78e410ae9a0b0001a97274,ma_choice_v4_movies_real1,5a78e410ae9a0b0001a97274,0,Acting,1,,,ew_att_rating,7886,,,,,2022-06-27 13:53:59,40415
5a78e410ae9a0b0001a97274,ma_choice_v4_movies_real1,5a78e410ae9a0b0001a97274,0,Humor,1,,,ew_att_rating,7886,,,,,2022-06-27 13:53:59,40416
5a78e410ae9a0b0001a97274,ma_choice_v4_movies_real1,5a78e410ae9a0b0001a97274,0,Plot,1,,,ew_att_rating,7886,,,,,2022-06-27 13:53:59,40417
5a78e410ae9a0b0001a97274,ma_choice_v4_movies_real1,5a78e410ae9a0b0001a97274,0,Dialogue,1,,,ew_att_rating,7886,,,,,2022-06-27 13:53:59,40418
5a78e410ae9a0b0001a97274,ma_choice_v4_movies_real1,5a78e410ae9a0b0001a97274,8,good action,26,,,wad_att_rating,5191,,,,,2022-06-27 13:54:06,40419
5a78e410ae9a0b0001a97274,ma_choice_v4_movies_real1,5a78e410ae9a0b0001a97274,5,plot,76,,,wad_att_rating,3578,,,,,2022-06-27 13:54:09,40420
5a78e410ae9a0b0001a97274,ma_choice_v4_movies_real1,5a78e410ae9a0b0001a97274,1,funny,63,,,wad_att_rating,2705,,,,,2022-06-27 13:54:12,40421
5a78e410ae9a0b0001a97274,ma_choice_v4_movies_real1,5a78e410ae9a0b0001a97274,3,visual,75,,,wad_att_rating,3200,,,,,2022-06-27 13:54:15,40422
5a78e410ae9a0b0001a97274,ma_choice_v4_movies_real1,5a78e410ae9a0b0001a97274,6,dialogue,75,,,wad_att_rating,2254,,,,,2022-06-27 13:54:17,40423
5a78e410ae9a0b0001a97274,ma_choice_v4_movies_real1,5a78e410ae9a0b0001a97274,4,great acting,88,,,wad_att_rating,3329,,,,,2022-06-27 13:54:21,40424
5a78e410ae9a0b0001a97274,ma_choice_v4_movies_real1,5a78e410ae9a0b0001a97274,7,awesome soundtrack,3,,,wad_att_rating,4641,,,,,2022-06-27 13:54:25,40425
5a78e410ae9a0b0001a97274,ma_choice_v4_movies_real1,5a78e410ae9a0b0001a97274,2,romantic,23,,,wad_att_rating,3844,,,,,2022-06-27 13:54:29,40426
5a78e410ae9a0b0001a97274,ma_choice_v4_movies_real1,5a78e410ae9a0b0001a97274,0,artistic,25,,,wad_att_rating,2942,,,,,2022-06-27 13:54:32,40427
6286f7e85258b1fba2cd6f0d,ma_choice_v4_movies_real1,6286f7e85258b1fba2cd6f0d,0,Acting,1,,,lex_att_rating,2659,,,,,2022-06-27 13:56:42,40428
6286f7e85258b1fba2cd6f0d,ma_choice_v4_movies_real1,6286f7e85258b1fba2cd6f0d,6,dialogue,8,,,wad_att_rating,3387,,,,,2022-06-27 13:56:49,40429
6286f7e85258b1fba2cd6f0d,ma_choice_v4_movies_real1,6286f7e85258b1fba2cd6f0d,0,artistic,13,,,wad_att_rating,6227,,,,,2022-06-27 13:56:56,40430
6286f7e85258b1fba2cd6f0d,ma_choice_v4_movies_real1,6286f7e85258b1fba2cd6f0d,2,romantic,0,,,wad_att_rating,2250,,,,,2022-06-27 13:56:58,40431
6286f7e85258b1fba2cd6f0d,ma_choice_v4_movies_real1,6286f7e85258b1fba2cd6f0d,1,funny,83,,,wad_att_rating,4431,,,,,2022-06-27 13:57:02,40432
6286f7e85258b1fba2cd6f0d,ma_choice_v4_movies_real1,6286f7e85258b1fba2cd6f0d,7,awesome soundtrack,0,,,wad_att_rating,1852,,,,,2022-06-27 13:57:04,40433
6286f7e85258b1fba2cd6f0d,ma_choice_v4_movies_real1,6286f7e85258b1fba2cd6f0d,4,great acting,96,,,wad_att_rating,3492,,,,,2022-06-27 13:57:08,40434
6286f7e85258b1fba2cd6f0d,ma_choice_v4_movies_real1,6286f7e85258b1fba2cd6f0d,8,good action,50,,,wad_att_rating,2386,,,,,2022-06-27 13:57:10,40435
6286f7e85258b1fba2cd6f0d,ma_choice_v4_movies_real1,6286f7e85258b1fba2cd6f0d,5,plot,50,,,wad_att_rating,2847,,,,,2022-06-27 13:57:13,40436
6286f7e85258b1fba2cd6f0d,ma_choice_v4_movies_real1,6286f7e85258b1fba2cd6f0d,3,visual,23,,,wad_att_rating,2123,,,,,2022-06-27 13:57:15,40437
5a78e410ae9a0b0001a97274,ma_choice_v4_movies_real1,5a78e410ae9a0b0001a97274,0,visual,1,Very Bad,Very Good,direction,8569,,,,,2022-06-27 13:57:44,40438
5a78e410ae9a0b0001a97274,ma_choice_v4_movies_real1,5a78e410ae9a0b0001a97274,0,visual,1,Very Bad,Bad,direction,4327,,,,,2022-06-27 13:57:49,40439
5a78e410ae9a0b0001a97274,ma_choice_v4_movies_real1,5a78e410ae9a0b0001a97274,0,visual,1,Bad,Moderate,direction,2983,,,,,2022-06-27 13:57:52,40440
5a78e410ae9a0b0001a97274,ma_choice_v4_movies_real1,5a78e410ae9a0b0001a97274,0,visual,1,Moderate,Good,direction,3056,,,,,2022-06-27 13:57:55,40441
5a78e410ae9a0b0001a97274,ma_choice_v4_movies_real1,5a78e410ae9a0b0001a97274,0,visual,1,Good,Very Good,direction,2636,,,,,2022-06-27 13:57:57,40442
5a78e410ae9a0b0001a97274,ma_choice_v4_movies_real1,5a78e410ae9a0b0001a97274,1,funny,1,Very Bad,Very Good,direction,1964,,,,,2022-06-27 13:58:01,40443
5a78e410ae9a0b0001a97274,ma_choice_v4_movies_real1,5a78e410ae9a0b0001a97274,1,funny,1,Very Bad,Bad,direction,2420,,,,,2022-06-27 13:58:03,40444
6286f7e85258b1fba2cd6f0d,ma_choice_v4_movies_real1,6286f7e85258b1fba2cd6f0d,0,Plot,1,,,ew_att_rating,11723,,,,,2022-06-27 13:58:04,40445
6286f7e85258b1fba2cd6f0d,ma_choice_v4_movies_real1,6286f7e85258b1fba2cd6f0d,0,Humor,1,,,ew_att_rating,11723,,,,,2022-06-27 13:58:04,40446
6286f7e85258b1fba2cd6f0d,ma_choice_v4_movies_real1,6286f7e85258b1fba2cd6f0d,0,Action Scenes,1,,,ew_att_rating,11723,,,,,2022-06-27 13:58:04,40447
6286f7e85258b1fba2cd6f0d,ma_choice_v4_movies_real1,6286f7e85258b1fba2cd6f0d,0,Acting,1,,,ew_att_rating,11723,,,,,2022-06-27 13:58:04,40448
5a78e410ae9a0b0001a97274,ma_choice_v4_movies_real1,5a78e410ae9a0b0001a97274,1,funny,1,Bad,Moderate,direction,1646,,,,,2022-06-27 13:58:05,40449
5a78e410ae9a0b0001a97274,ma_choice_v4_movies_real1,5a78e410ae9a0b0001a97274,1,funny,1,Moderate,Good,direction,1813,,,,,2022-06-27 13:58:06,40450
5a78e410ae9a0b0001a97274,ma_choice_v4_movies_real1,5a78e410ae9a0b0001a97274,1,funny,1,Good,Very Good,direction,2342,,,,,2022-06-27 13:58:09,40451
5a78e410ae9a0b0001a97274,ma_choice_v4_movies_real1,5a78e410ae9a0b0001a97274,2,romantic,1,Very Bad,Very Good,direction,6398,,,,,2022-06-27 13:58:16,40452
5a78e410ae9a0b0001a97274,ma_choice_v4_movies_real1,5a78e410ae9a0b0001a97274,2,romantic,1,Very Bad,Bad,direction,1901,,,,,2022-06-27 13:58:18,40453
5a78e410ae9a0b0001a97274,ma_choice_v4_movies_real1,5a78e410ae9a0b0001a97274,2,romantic,1,Bad,Moderate,direction,1368,,,,,2022-06-27 13:58:20,40454
5a78e410ae9a0b0001a97274,ma_choice_v4_movies_real1,5a78e410ae9a0b0001a97274,2,romantic,1,Moderate,Good,direction,1959,,,,,2022-06-27 13:58:22,40455
5a78e410ae9a0b0001a97274,ma_choice_v4_movies_real1,5a78e410ae9a0b0001a97274,2,romantic,1,Good,Very Good,direction,1448,,,,,2022-06-27 13:58:23,40456
5a78e410ae9a0b0001a97274,ma_choice_v4_movies_real1,5a78e410ae9a0b0001a97274,3,dialogue,1,Very Bad,Very Good,direction,1447,,,,,2022-06-27 13:58:25,40457
5a78e410ae9a0b0001a97274,ma_choice_v4_movies_real1,5a78e410ae9a0b0001a97274,3,dialogue,1,Very Bad,Bad,direction,1542,,,,,2022-06-27 13:58:27,40458
5a78e410ae9a0b0001a97274,ma_choice_v4_movies_real1,5a78e410ae9a0b0001a97274,3,dialogue,1,Bad,Moderate,direction,1815,,,,,2022-06-27 13:58:29,40459
5a78e410ae9a0b0001a97274,ma_choice_v4_movies_real1,5a78e410ae9a0b0001a97274,3,dialogue,1,Moderate,Good,direction,1328,,,,,2022-06-27 13:58:30,40460
5a78e410ae9a0b0001a97274,ma_choice_v4_movies_real1,5a78e410ae9a0b0001a97274,3,dialogue,1,Good,Very Good,direction,2368,,,,,2022-06-27 13:58:33,40461
5a78e410ae9a0b0001a97274,ma_choice_v4_movies_real1,5a78e410ae9a0b0001a97274,4,plot,1,Very Bad,Very Good,direction,1568,,,,,2022-06-27 13:58:35,40462
5a78e410ae9a0b0001a97274,ma_choice_v4_movies_real1,5a78e410ae9a0b0001a97274,4,plot,1,Very Bad,Bad,direction,1683,,,,,2022-06-27 13:58:37,40463
5a78e410ae9a0b0001a97274,ma_choice_v4_movies_real1,5a78e410ae9a0b0001a97274,4,plot,1,Bad,Moderate,direction,1511,,,,,2022-06-27 13:58:38,40464
5a78e410ae9a0b0001a97274,ma_choice_v4_movies_real1,5a78e410ae9a0b0001a97274,4,plot,1,Moderate,Good,direction,1951,,,,,2022-06-27 13:58:40,40465
5a78e410ae9a0b0001a97274,ma_choice_v4_movies_real1,5a78e410ae9a0b0001a97274,4,plot,1,Good,Very Good,direction,2440,,,,,2022-06-27 13:58:43,40466
5a78e410ae9a0b0001a97274,ma_choice_v4_movies_real1,5a78e410ae9a0b0001a97274,5,artistic,1,Very Bad,Very Good,direction,2021,,,,,2022-06-27 13:58:46,40467
5a78e410ae9a0b0001a97274,ma_choice_v4_movies_real1,5a78e410ae9a0b0001a97274,5,artistic,1,Very Bad,Bad,direction,1811,,,,,2022-06-27 13:58:48,40468
5a78e410ae9a0b0001a97274,ma_choice_v4_movies_real1,5a78e410ae9a0b0001a97274,5,artistic,1,Bad,Moderate,direction,1078,,,,,2022-06-27 13:58:49,40469
5a78e410ae9a0b0001a97274,ma_choice_v4_movies_real1,5a78e410ae9a0b0001a97274,5,artistic,1,Moderate,Good,direction,838,,,,,2022-06-27 13:58:50,40470
5a78e410ae9a0b0001a97274,ma_choice_v4_movies_real1,5a78e410ae9a0b0001a97274,5,artistic,1,Good,Very Good,direction,2259,,,,,2022-06-27 13:58:53,40471
5a78e410ae9a0b0001a97274,ma_choice_v4_movies_real1,5a78e410ae9a0b0001a97274,6,good action,1,Very Bad,Very Good,direction,938,,,,,2022-06-27 13:58:54,40472
5a78e410ae9a0b0001a97274,ma_choice_v4_movies_real1,5a78e410ae9a0b0001a97274,6,good action,1,Very Bad,Bad,direction,858,,,,,2022-06-27 13:58:54,40473
5a78e410ae9a0b0001a97274,ma_choice_v4_movies_real1,5a78e410ae9a0b0001a97274,6,good action,1,Bad,Moderate,direction,892,,,,,2022-06-27 13:58:56,40474
5a78e410ae9a0b0001a97274,ma_choice_v4_movies_real1,5a78e410ae9a0b0001a97274,6,good action,1,Moderate,Good,direction,937,,,,,2022-06-27 13:58:56,40475
5a78e410ae9a0b0001a97274,ma_choice_v4_movies_real1,5a78e410ae9a0b0001a97274,6,good action,1,Good,Very Good,direction,1452,,,,,2022-06-27 13:59:04,40476
5a78e410ae9a0b0001a97274,ma_choice_v4_movies_real1,5a78e410ae9a0b0001a97274,7,great acting,1,Very Bad,Very Good,direction,2187,,,,,2022-06-27 13:59:04,40477
5a78e410ae9a0b0001a97274,ma_choice_v4_movies_real1,5a78e410ae9a0b0001a97274,7,great acting,1,Very Bad,Bad,direction,1100,,,,,2022-06-27 13:59:04,40478
5a78e410ae9a0b0001a97274,ma_choice_v4_movies_real1,5a78e410ae9a0b0001a97274,7,great acting,1,Bad,Moderate,direction,1486,,,,,2022-06-27 13:59:04,40479
5a78e410ae9a0b0001a97274,ma_choice_v4_movies_real1,5a78e410ae9a0b0001a97274,7,great acting,1,Moderate,Good,direction,1744,,,,,2022-06-27 13:59:05,40480
5a78e410ae9a0b0001a97274,ma_choice_v4_movies_real1,5a78e410ae9a0b0001a97274,7,great acting,1,Good,Very Good,direction,950,,,,,2022-06-27 13:59:06,40481
5a78e410ae9a0b0001a97274,ma_choice_v4_movies_real1,5a78e410ae9a0b0001a97274,8,awesome soundtrack,1,Very Bad,Very Good,direction,929,,,,,2022-06-27 13:59:08,40482
5a78e410ae9a0b0001a97274,ma_choice_v4_movies_real1,5a78e410ae9a0b0001a97274,8,awesome soundtrack,1,Very Bad,Bad,direction,1103,,,,,2022-06-27 13:59:09,40483
5a78e410ae9a0b0001a97274,ma_choice_v4_movies_real1,5a78e410ae9a0b0001a97274,8,awesome soundtrack,1,Bad,Moderate,direction,995,,,,,2022-06-27 13:59:10,40484
5a78e410ae9a0b0001a97274,ma_choice_v4_movies_real1,5a78e410ae9a0b0001a97274,8,awesome soundtrack,1,Moderate,Good,direction,977,,,,,2022-06-27 13:59:12,40485
5a78e410ae9a0b0001a97274,ma_choice_v4_movies_real1,5a78e410ae9a0b0001a97274,8,awesome soundtrack,1,Good,Very Good,direction,989,,,,,2022-06-27 13:59:13,40486
600628028f2211980fd1632c,ma_choice_v4_movies_real1,600628028f2211980fd1632c,5,plot,75,,,wad_att_rating,5754,,,,,2022-06-27 14:00:41,40487
600628028f2211980fd1632c,ma_choice_v4_movies_real1,600628028f2211980fd1632c,0,artistic,75,,,wad_att_rating,2932,,,,,2022-06-27 14:00:44,40488
600628028f2211980fd1632c,ma_choice_v4_movies_real1,600628028f2211980fd1632c,7,awesome soundtrack,62,,,wad_att_rating,2644,,,,,2022-06-27 14:00:47,40489
600628028f2211980fd1632c,ma_choice_v4_movies_real1,600628028f2211980fd1632c,1,funny,37,,,wad_att_rating,4521,,,,,2022-06-27 14:00:51,40490
600628028f2211980fd1632c,ma_choice_v4_movies_real1,600628028f2211980fd1632c,6,dialogue,50,,,wad_att_rating,2917,,,,,2022-06-27 14:00:54,40491
600628028f2211980fd1632c,ma_choice_v4_movies_real1,600628028f2211980fd1632c,4,great acting,88,,,wad_att_rating,5683,,,,,2022-06-27 14:01:00,40492
600628028f2211980fd1632c,ma_choice_v4_movies_real1,600628028f2211980fd1632c,8,good action,25,,,wad_att_rating,3276,,,,,2022-06-27 14:01:03,40493
600628028f2211980fd1632c,ma_choice_v4_movies_real1,600628028f2211980fd1632c,2,romantic,13,,,wad_att_rating,2519,,,,,2022-06-27 14:01:05,40494
600628028f2211980fd1632c,ma_choice_v4_movies_real1,600628028f2211980fd1632c,3,visual,25,,,wad_att_rating,3129,,,,,2022-06-27 14:01:09,40495
6126ecc3ebef11936ed8bfcb,ma_choice_v4_movies_real1,6126ecc3ebef11936ed8bfcb,0,Romantic Scenes,1,,,ew_att_rating,19721,,,,,2022-06-27 14:01:09,40496
6126ecc3ebef11936ed8bfcb,ma_choice_v4_movies_real1,6126ecc3ebef11936ed8bfcb,0,Creativity,1,,,ew_att_rating,19721,,,,,2022-06-27 14:01:09,40497
6126ecc3ebef11936ed8bfcb,ma_choice_v4_movies_real1,6126ecc3ebef11936ed8bfcb,0,Dialogue,1,,,ew_att_rating,19721,,,,,2022-06-27 14:01:09,40498
6126ecc3ebef11936ed8bfcb,ma_choice_v4_movies_real1,6126ecc3ebef11936ed8bfcb,0,Humor,1,,,ew_att_rating,19721,,,,,2022-06-27 14:01:09,40499
6286f7e85258b1fba2cd6f0d,ma_choice_v4_movies_real1,6286f7e85258b1fba2cd6f0d,0,dialogue,1,Very Bad,Very Good,direction,7605,,,,,2022-06-27 14:01:14,40500
6286f7e85258b1fba2cd6f0d,ma_choice_v4_movies_real1,6286f7e85258b1fba2cd6f0d,0,dialogue,1,Very Bad,Bad,direction,6246,,,,,2022-06-27 14:01:21,40501
6126ecc3ebef11936ed8bfcb,ma_choice_v4_movies_real1,6126ecc3ebef11936ed8bfcb,1,funny,68,,,wad_att_rating,7883,,,,,2022-06-27 14:01:23,40502
6286f7e85258b1fba2cd6f0d,ma_choice_v4_movies_real1,6286f7e85258b1fba2cd6f0d,0,dialogue,1,Bad,Moderate,direction,4848,,,,,2022-06-27 14:01:26,40503
6126ecc3ebef11936ed8bfcb,ma_choice_v4_movies_real1,6126ecc3ebef11936ed8bfcb,0,artistic,51,,,wad_att_rating,3590,,,,,2022-06-27 14:01:27,40504
6286f7e85258b1fba2cd6f0d,ma_choice_v4_movies_real1,6286f7e85258b1fba2cd6f0d,0,dialogue,1,Moderate,Good,direction,3697,,,,,2022-06-27 14:01:29,40505
55b8d0bffdf99b0f2859fe73,ma_choice_v4_movies_real1,55b8d0bffdf99b0f2859fe73,4,great acting,76,,,wad_att_rating,4659,,,,,2022-06-27 14:01:30,40506
6126ecc3ebef11936ed8bfcb,ma_choice_v4_movies_real1,6126ecc3ebef11936ed8bfcb,6,dialogue,40,,,wad_att_rating,3095,,,,,2022-06-27 14:01:30,40507
6286f7e85258b1fba2cd6f0d,ma_choice_v4_movies_real1,6286f7e85258b1fba2cd6f0d,0,dialogue,1,Good,Very Good,direction,1657,,,,,2022-06-27 14:01:31,40508
600628028f2211980fd1632c,ma_choice_v4_movies_real1,600628028f2211980fd1632c,0,Creativity,1,,,ew_att_rating,12350,,,,,2022-06-27 14:01:32,40509
600628028f2211980fd1632c,ma_choice_v4_movies_real1,600628028f2211980fd1632c,0,Acting,1,,,ew_att_rating,12350,,,,,2022-06-27 14:01:32,40510
600628028f2211980fd1632c,ma_choice_v4_movies_real1,600628028f2211980fd1632c,0,Plot,1,,,ew_att_rating,12350,,,,,2022-06-27 14:01:32,40511
600628028f2211980fd1632c,ma_choice_v4_movies_real1,600628028f2211980fd1632c,0,Dialogue,1,,,ew_att_rating,12350,,,,,2022-06-27 14:01:32,40512
600628028f2211980fd1632c,ma_choice_v4_movies_real1,600628028f2211980fd1632c,0,Soundtrack,1,,,ew_att_rating,12350,,,,,2022-06-27 14:01:32,40513
6126ecc3ebef11936ed8bfcb,ma_choice_v4_movies_real1,6126ecc3ebef11936ed8bfcb,7,awesome soundtrack,37,,,wad_att_rating,2881,,,,,2022-06-27 14:01:33,40514
55b8d0bffdf99b0f2859fe73,ma_choice_v4_movies_real1,55b8d0bffdf99b0f2859fe73,1,funny,68,,,wad_att_rating,4097,,,,,2022-06-27 14:01:34,40515
6126ecc3ebef11936ed8bfcb,ma_choice_v4_movies_real1,6126ecc3ebef11936ed8bfcb,3,visual,11,,,wad_att_rating,2355,,,,,2022-06-27 14:01:35,40516
6286f7e85258b1fba2cd6f0d,ma_choice_v4_movies_real1,6286f7e85258b1fba2cd6f0d,1,visual,1,Very Bad,Very Good,direction,3319,,,,,2022-06-27 14:01:36,40517
55b8d0bffdf99b0f2859fe73,ma_choice_v4_movies_real1,55b8d0bffdf99b0f2859fe73,3,visual,18,,,wad_att_rating,2188,,,,,2022-06-27 14:01:36,40518
6286f7e85258b1fba2cd6f0d,ma_choice_v4_movies_real1,6286f7e85258b1fba2cd6f0d,1,visual,1,Very Bad,Bad,direction,2071,,,,,2022-06-27 14:01:38,40519
6126ecc3ebef11936ed8bfcb,ma_choice_v4_movies_real1,6126ecc3ebef11936ed8bfcb,8,good action,0,,,wad_att_rating,2538,,,,,2022-06-27 14:01:38,40520
55b8d0bffdf99b0f2859fe73,ma_choice_v4_movies_real1,55b8d0bffdf99b0f2859fe73,5,plot,88,,,wad_att_rating,2812,,,,,2022-06-27 14:01:39,40521
6286f7e85258b1fba2cd6f0d,ma_choice_v4_movies_real1,6286f7e85258b1fba2cd6f0d,1,visual,1,Bad,Moderate,direction,1343,,,,,2022-06-27 14:01:39,40522
600628028f2211980fd1632c,ma_choice_v4_movies_real1,600628028f2211980fd1632c,0,Acting,1,,,lex_att_rating,2833,,,,,2022-06-27 14:01:40,40523
6126ecc3ebef11936ed8bfcb,ma_choice_v4_movies_real1,6126ecc3ebef11936ed8bfcb,4,great acting,33,,,wad_att_rating,2501,,,,,2022-06-27 14:01:40,40524
55b8d0bffdf99b0f2859fe73,ma_choice_v4_movies_real1,55b8d0bffdf99b0f2859fe73,2,romantic,12,,,wad_att_rating,2022,,,,,2022-06-27 14:01:41,40525
6286f7e85258b1fba2cd6f0d,ma_choice_v4_movies_real1,6286f7e85258b1fba2cd6f0d,1,visual,1,Moderate,Good,direction,3091,,,,,2022-06-27 14:01:42,40526
55b8d0bffdf99b0f2859fe73,ma_choice_v4_movies_real1,55b8d0bffdf99b0f2859fe73,7,awesome soundtrack,0,,,wad_att_rating,2276,,,,,2022-06-27 14:01:43,40527
6286f7e85258b1fba2cd6f0d,ma_choice_v4_movies_real1,6286f7e85258b1fba2cd6f0d,1,visual,1,Good,Very Good,direction,1145,,,,,2022-06-27 14:01:43,40528
6126ecc3ebef11936ed8bfcb,ma_choice_v4_movies_real1,6126ecc3ebef11936ed8bfcb,2,romantic,52,,,wad_att_rating,2954,,,,,2022-06-27 14:01:43,40529
55b8d0bffdf99b0f2859fe73,ma_choice_v4_movies_real1,55b8d0bffdf99b0f2859fe73,0,artistic,13,,,wad_att_rating,2343,,,,,2022-06-27 14:01:45,40530
6286f7e85258b1fba2cd6f0d,ma_choice_v4_movies_real1,6286f7e85258b1fba2cd6f0d,2,awesome soundtrack,1,Very Bad,Very Good,direction,1556,,,,,2022-06-27 14:01:46,40531
6126ecc3ebef11936ed8bfcb,ma_choice_v4_movies_real1,6126ecc3ebef11936ed8bfcb,5,plot,8,,,wad_att_rating,2444,,,,,2022-06-27 14:01:46,40532
6286f7e85258b1fba2cd6f0d,ma_choice_v4_movies_real1,6286f7e85258b1fba2cd6f0d,2,awesome soundtrack,1,Very Bad,Bad,direction,885,,,,,2022-06-27 14:01:47,40533
6286f7e85258b1fba2cd6f0d,ma_choice_v4_movies_real1,6286f7e85258b1fba2cd6f0d,2,awesome soundtrack,1,Bad,Moderate,direction,863,,,,,2022-06-27 14:01:47,40534
55b8d0bffdf99b0f2859fe73,ma_choice_v4_movies_real1,55b8d0bffdf99b0f2859fe73,6,dialogue,18,,,wad_att_rating,2132,,,,,2022-06-27 14:01:48,40535
6286f7e85258b1fba2cd6f0d,ma_choice_v4_movies_real1,6286f7e85258b1fba2cd6f0d,2,awesome soundtrack,1,Moderate,Good,direction,1852,,,,,2022-06-27 14:01:49,40536
55b8d0bffdf99b0f2859fe73,ma_choice_v4_movies_real1,55b8d0bffdf99b0f2859fe73,8,good action,21,,,wad_att_rating,2037,,,,,2022-06-27 14:01:50,40537
6286f7e85258b1fba2cd6f0d,ma_choice_v4_movies_real1,6286f7e85258b1fba2cd6f0d,2,awesome soundtrack,1,Good,Very Good,direction,1101,,,,,2022-06-27 14:01:50,40538
6286f7e85258b1fba2cd6f0d,ma_choice_v4_movies_real1,6286f7e85258b1fba2cd6f0d,3,good action,1,Very Bad,Very Good,direction,1993,,,,,2022-06-27 14:01:53,40539
6286f7e85258b1fba2cd6f0d,ma_choice_v4_movies_real1,6286f7e85258b1fba2cd6f0d,3,good action,1,Very Bad,Bad,direction,1121,,,,,2022-06-27 14:01:54,40540
6126ecc3ebef11936ed8bfcb,ma_choice_v4_movies_real1,6126ecc3ebef11936ed8bfcb,0,Humor,1,,,lex_att_rating,3302,,,,,2022-06-27 14:01:55,40541
6286f7e85258b1fba2cd6f0d,ma_choice_v4_movies_real1,6286f7e85258b1fba2cd6f0d,3,good action,1,Bad,Moderate,direction,991,,,,,2022-06-27 14:01:55,40542
6286f7e85258b1fba2cd6f0d,ma_choice_v4_movies_real1,6286f7e85258b1fba2cd6f0d,3,good action,1,Moderate,Good,direction,864,,,,,2022-06-27 14:01:56,40543
6286f7e85258b1fba2cd6f0d,ma_choice_v4_movies_real1,6286f7e85258b1fba2cd6f0d,3,good action,1,Good,Very Good,direction,1196,,,,,2022-06-27 14:01:58,40544
55b8d0bffdf99b0f2859fe73,ma_choice_v4_movies_real1,55b8d0bffdf99b0f2859fe73,0,Plot,1,,,lex_att_rating,2905,,,,,2022-06-27 14:02:00,40545
6286f7e85258b1fba2cd6f0d,ma_choice_v4_movies_real1,6286f7e85258b1fba2cd6f0d,4,artistic,1,Very Bad,Very Good,direction,1482,,,,,2022-06-27 14:02:00,40546
6286f7e85258b1fba2cd6f0d,ma_choice_v4_movies_real1,6286f7e85258b1fba2cd6f0d,4,artistic,1,Very Bad,Bad,direction,822,,,,,2022-06-27 14:02:01,40547
6286f7e85258b1fba2cd6f0d,ma_choice_v4_movies_real1,6286f7e85258b1fba2cd6f0d,4,artistic,1,Bad,Moderate,direction,1423,,,,,2022-06-27 14:02:02,40548
6286f7e85258b1fba2cd6f0d,ma_choice_v4_movies_real1,6286f7e85258b1fba2cd6f0d,4,artistic,1,Moderate,Good,direction,1016,,,,,2022-06-27 14:02:04,40549
6286f7e85258b1fba2cd6f0d,ma_choice_v4_movies_real1,6286f7e85258b1fba2cd6f0d,4,artistic,1,Good,Very Good,direction,933,,,,,2022-06-27 14:02:04,40550
6286f7e85258b1fba2cd6f0d,ma_choice_v4_movies_real1,6286f7e85258b1fba2cd6f0d,5,funny,1,Very Bad,Very Good,direction,1281,,,,,2022-06-27 14:02:07,40551
6286f7e85258b1fba2cd6f0d,ma_choice_v4_movies_real1,6286f7e85258b1fba2cd6f0d,5,funny,1,Very Bad,Bad,direction,810,,,,,2022-06-27 14:02:08,40552
6286f7e85258b1fba2cd6f0d,ma_choice_v4_movies_real1,6286f7e85258b1fba2cd6f0d,5,funny,1,Bad,Moderate,direction,822,,,,,2022-06-27 14:02:08,40553
6286f7e85258b1fba2cd6f0d,ma_choice_v4_movies_real1,6286f7e85258b1fba2cd6f0d,5,funny,1,Moderate,Good,direction,757,,,,,2022-06-27 14:02:09,40554
6286f7e85258b1fba2cd6f0d,ma_choice_v4_movies_real1,6286f7e85258b1fba2cd6f0d,5,funny,1,Good,Very Good,direction,851,,,,,2022-06-27 14:02:10,40555
6286f7e85258b1fba2cd6f0d,ma_choice_v4_movies_real1,6286f7e85258b1fba2cd6f0d,6,plot,1,Very Bad,Very Good,direction,1003,,,,,2022-06-27 14:02:12,40556
6286f7e85258b1fba2cd6f0d,ma_choice_v4_movies_real1,6286f7e85258b1fba2cd6f0d,6,plot,1,Very Bad,Bad,direction,706,,,,,2022-06-27 14:02:13,40557
6286f7e85258b1fba2cd6f0d,ma_choice_v4_movies_real1,6286f7e85258b1fba2cd6f0d,6,plot,1,Bad,Moderate,direction,638,,,,,2022-06-27 14:02:14,40558
6286f7e85258b1fba2cd6f0d,ma_choice_v4_movies_real1,6286f7e85258b1fba2cd6f0d,6,plot,1,Moderate,Good,direction,740,,,,,2022-06-27 14:02:14,40559
6286f7e85258b1fba2cd6f0d,ma_choice_v4_movies_real1,6286f7e85258b1fba2cd6f0d,6,plot,1,Good,Very Good,direction,643,,,,,2022-06-27 14:02:15,40560
55b8d0bffdf99b0f2859fe73,ma_choice_v4_movies_real1,55b8d0bffdf99b0f2859fe73,0,Plot,1,,,ew_att_rating,8203,,,,,2022-06-27 14:02:15,40561
55b8d0bffdf99b0f2859fe73,ma_choice_v4_movies_real1,55b8d0bffdf99b0f2859fe73,0,Acting,1,,,ew_att_rating,8203,,,,,2022-06-27 14:02:15,40562
55b8d0bffdf99b0f2859fe73,ma_choice_v4_movies_real1,55b8d0bffdf99b0f2859fe73,0,Humor,1,,,ew_att_rating,8203,,,,,2022-06-27 14:02:15,40563
6286f7e85258b1fba2cd6f0d,ma_choice_v4_movies_real1,6286f7e85258b1fba2cd6f0d,7,great acting,1,Very Bad,Very Good,direction,1115,,,,,2022-06-27 14:02:17,40564
6286f7e85258b1fba2cd6f0d,ma_choice_v4_movies_real1,6286f7e85258b1fba2cd6f0d,7,great acting,1,Very Bad,Bad,direction,1265,,,,,2022-06-27 14:02:18,40565
6286f7e85258b1fba2cd6f0d,ma_choice_v4_movies_real1,6286f7e85258b1fba2cd6f0d,7,great acting,1,Bad,Moderate,direction,972,,,,,2022-06-27 14:02:19,40566
6286f7e85258b1fba2cd6f0d,ma_choice_v4_movies_real1,6286f7e85258b1fba2cd6f0d,7,great acting,1,Moderate,Good,direction,612,,,,,2022-06-27 14:02:20,40567
6286f7e85258b1fba2cd6f0d,ma_choice_v4_movies_real1,6286f7e85258b1fba2cd6f0d,7,great acting,1,Good,Very Good,direction,746,,,,,2022-06-27 14:02:21,40568
6286f7e85258b1fba2cd6f0d,ma_choice_v4_movies_real1,6286f7e85258b1fba2cd6f0d,8,romantic,1,Very Bad,Very Good,direction,1001,,,,,2022-06-27 14:02:23,40569
6286f7e85258b1fba2cd6f0d,ma_choice_v4_movies_real1,6286f7e85258b1fba2cd6f0d,8,romantic,1,Very Bad,Bad,direction,770,,,,,2022-06-27 14:02:23,40570
6286f7e85258b1fba2cd6f0d,ma_choice_v4_movies_real1,6286f7e85258b1fba2cd6f0d,8,romantic,1,Bad,Moderate,direction,1005,,,,,2022-06-27 14:02:24,40571
6286f7e85258b1fba2cd6f0d,ma_choice_v4_movies_real1,6286f7e85258b1fba2cd6f0d,8,romantic,1,Moderate,Good,direction,2716,,,,,2022-06-27 14:02:27,40572
6286f7e85258b1fba2cd6f0d,ma_choice_v4_movies_real1,6286f7e85258b1fba2cd6f0d,8,romantic,1,Good,Very Good,direction,898,,,,,2022-06-27 14:02:28,40573
6126ecc3ebef11936ed8bfcb,ma_choice_v4_movies_real1,6126ecc3ebef11936ed8bfcb,0,good action,1,Very Bad,Very Good,direction,10700,,,,,2022-06-27 14:02:33,40574
6126ecc3ebef11936ed8bfcb,ma_choice_v4_movies_real1,6126ecc3ebef11936ed8bfcb,0,good action,1,Very Bad,Bad,direction,7528,,,,,2022-06-27 14:02:41,40575
6126ecc3ebef11936ed8bfcb,ma_choice_v4_movies_real1,6126ecc3ebef11936ed8bfcb,0,good action,1,Bad,Moderate,direction,3205,,,,,2022-06-27 14:02:44,40576
6126ecc3ebef11936ed8bfcb,ma_choice_v4_movies_real1,6126ecc3ebef11936ed8bfcb,0,good action,1,Moderate,Good,direction,2841,,,,,2022-06-27 14:02:47,40577
600628028f2211980fd1632c,ma_choice_v4_movies_real1,600628028f2211980fd1632c,0,romantic,1,Very Bad,Very Good,direction,44051,,,,,2022-06-27 14:02:49,40578
6126ecc3ebef11936ed8bfcb,ma_choice_v4_movies_real1,6126ecc3ebef11936ed8bfcb,0,good action,1,Good,Very Good,direction,4281,,,,,2022-06-27 14:02:51,40579
6126ecc3ebef11936ed8bfcb,ma_choice_v4_movies_real1,6126ecc3ebef11936ed8bfcb,1,artistic,1,Very Bad,Very Good,direction,4329,,,,,2022-06-27 14:02:57,40580
600628028f2211980fd1632c,ma_choice_v4_movies_real1,600628028f2211980fd1632c,0,romantic,1,Very Bad,Bad,direction,8926,,,,,2022-06-27 14:02:58,40581
6126ecc3ebef11936ed8bfcb,ma_choice_v4_movies_real1,6126ecc3ebef11936ed8bfcb,1,artistic,1,Very Bad,Bad,direction,3232,,,,,2022-06-27 14:03:00,40582
600628028f2211980fd1632c,ma_choice_v4_movies_real1,600628028f2211980fd1632c,0,romantic,1,Bad,Moderate,direction,4594,,,,,2022-06-27 14:03:02,40583
6126ecc3ebef11936ed8bfcb,ma_choice_v4_movies_real1,6126ecc3ebef11936ed8bfcb,1,artistic,1,Bad,Moderate,direction,4194,,,,,2022-06-27 14:03:04,40584
600628028f2211980fd1632c,ma_choice_v4_movies_real1,600628028f2211980fd1632c,0,romantic,1,Moderate,Good,direction,2864,,,,,2022-06-27 14:03:05,40585
600628028f2211980fd1632c,ma_choice_v4_movies_real1,600628028f2211980fd1632c,0,romantic,1,Good,Very Good,direction,2259,,,,,2022-06-27 14:03:08,40586
6126ecc3ebef11936ed8bfcb,ma_choice_v4_movies_real1,6126ecc3ebef11936ed8bfcb,1,artistic,1,Moderate,Good,direction,4378,,,,,2022-06-27 14:03:08,40587
6126ecc3ebef11936ed8bfcb,ma_choice_v4_movies_real1,6126ecc3ebef11936ed8bfcb,1,artistic,1,Good,Very Good,direction,2692,,,,,2022-06-27 14:03:11,40588
600628028f2211980fd1632c,ma_choice_v4_movies_real1,600628028f2211980fd1632c,1,good action,1,Very Bad,Very Good,direction,3277,,,,,2022-06-27 14:03:12,40589
600628028f2211980fd1632c,ma_choice_v4_movies_real1,600628028f2211980fd1632c,1,good action,1,Very Bad,Bad,direction,2999,,,,,2022-06-27 14:03:15,40590
6126ecc3ebef11936ed8bfcb,ma_choice_v4_movies_real1,6126ecc3ebef11936ed8bfcb,2,awesome soundtrack,1,Very Bad,Very Good,direction,3348,,,,,2022-06-27 14:03:16,40591
600628028f2211980fd1632c,ma_choice_v4_movies_real1,600628028f2211980fd1632c,1,good action,1,Bad,Moderate,direction,1973,,,,,2022-06-27 14:03:17,40592
600628028f2211980fd1632c,ma_choice_v4_movies_real1,600628028f2211980fd1632c,1,good action,1,Moderate,Good,direction,1537,,,,,2022-06-27 14:03:19,40593
600628028f2211980fd1632c,ma_choice_v4_movies_real1,600628028f2211980fd1632c,1,good action,1,Good,Very Good,direction,1944,,,,,2022-06-27 14:03:20,40594
600628028f2211980fd1632c,ma_choice_v4_movies_real1,600628028f2211980fd1632c,2,funny,1,Very Bad,Very Good,direction,1690,,,,,2022-06-27 14:03:23,40595
600628028f2211980fd1632c,ma_choice_v4_movies_real1,600628028f2211980fd1632c,2,funny,1,Very Bad,Bad,direction,4559,,,,,2022-06-27 14:03:28,40596
600628028f2211980fd1632c,ma_choice_v4_movies_real1,600628028f2211980fd1632c,2,funny,1,Bad,Moderate,direction,1213,,,,,2022-06-27 14:03:29,40597
6126ecc3ebef11936ed8bfcb,ma_choice_v4_movies_real1,6126ecc3ebef11936ed8bfcb,2,awesome soundtrack,1,Very Bad,Bad,direction,14433,,,,,2022-06-27 14:03:30,40598
600628028f2211980fd1632c,ma_choice_v4_movies_real1,600628028f2211980fd1632c,2,funny,1,Moderate,Good,direction,2526,,,,,2022-06-27 14:03:31,40599
600628028f2211980fd1632c,ma_choice_v4_movies_real1,600628028f2211980fd1632c,2,funny,1,Good,Very Good,direction,2053,,,,,2022-06-27 14:03:33,40600
6126ecc3ebef11936ed8bfcb,ma_choice_v4_movies_real1,6126ecc3ebef11936ed8bfcb,2,awesome soundtrack,1,Bad,Moderate,direction,5966,,,,,2022-06-27 14:03:36,40601
600628028f2211980fd1632c,ma_choice_v4_movies_real1,600628028f2211980fd1632c,3,great acting,1,Very Bad,Very Good,direction,2194,,,,,2022-06-27 14:03:37,40602
600628028f2211980fd1632c,ma_choice_v4_movies_real1,600628028f2211980fd1632c,3,great acting,1,Very Bad,Bad,direction,1991,,,,,2022-06-27 14:03:39,40603
600628028f2211980fd1632c,ma_choice_v4_movies_real1,600628028f2211980fd1632c,3,great acting,1,Bad,Moderate,direction,1649,,,,,2022-06-27 14:03:40,40604
600628028f2211980fd1632c,ma_choice_v4_movies_real1,600628028f2211980fd1632c,3,great acting,1,Moderate,Good,direction,1629,,,,,2022-06-27 14:03:42,40605
6126ecc3ebef11936ed8bfcb,ma_choice_v4_movies_real1,6126ecc3ebef11936ed8bfcb,2,awesome soundtrack,1,Moderate,Good,direction,6375,,,,,2022-06-27 14:03:43,40606
600628028f2211980fd1632c,ma_choice_v4_movies_real1,600628028f2211980fd1632c,3,great acting,1,Good,Very Good,direction,1967,,,,,2022-06-27 14:03:44,40607
600628028f2211980fd1632c,ma_choice_v4_movies_real1,600628028f2211980fd1632c,4,awesome soundtrack,1,Very Bad,Very Good,direction,2128,,,,,2022-06-27 14:03:47,40608
6126ecc3ebef11936ed8bfcb,ma_choice_v4_movies_real1,6126ecc3ebef11936ed8bfcb,2,awesome soundtrack,1,Good,Very Good,direction,5589,,,,,2022-06-27 14:03:48,40609
600628028f2211980fd1632c,ma_choice_v4_movies_real1,600628028f2211980fd1632c,4,awesome soundtrack,1,Very Bad,Bad,direction,1997,,,,,2022-06-27 14:03:49,40610
600628028f2211980fd1632c,ma_choice_v4_movies_real1,600628028f2211980fd1632c,4,awesome soundtrack,1,Bad,Moderate,direction,2016,,,,,2022-06-27 14:03:51,40611
600628028f2211980fd1632c,ma_choice_v4_movies_real1,600628028f2211980fd1632c,4,awesome soundtrack,1,Moderate,Good,direction,1920,,,,,2022-06-27 14:03:53,40612
600628028f2211980fd1632c,ma_choice_v4_movies_real1,600628028f2211980fd1632c,4,awesome soundtrack,1,Good,Very Good,direction,1603,,,,,2022-06-27 14:03:54,40613
600628028f2211980fd1632c,ma_choice_v4_movies_real1,600628028f2211980fd1632c,5,dialogue,1,Very Bad,Very Good,direction,4389,,,,,2022-06-27 14:04:00,40614
5e3b0c1e96942c0564ce3018,ma_choice_v4_movies_real1,5e3b0c1e96942c0564ce3018,0,Humor,1,,,ew_att_rating,8387,,,,,2022-06-27 14:04:00,40615
5e3b0c1e96942c0564ce3018,ma_choice_v4_movies_real1,5e3b0c1e96942c0564ce3018,0,Soundtrack,1,,,ew_att_rating,8387,,,,,2022-06-27 14:04:00,40616
600628028f2211980fd1632c,ma_choice_v4_movies_real1,600628028f2211980fd1632c,5,dialogue,1,Very Bad,Bad,direction,2021,,,,,2022-06-27 14:04:02,40617
600628028f2211980fd1632c,ma_choice_v4_movies_real1,600628028f2211980fd1632c,5,dialogue,1,Bad,Moderate,direction,1462,,,,,2022-06-27 14:04:03,40618
6126ecc3ebef11936ed8bfcb,ma_choice_v4_movies_real1,6126ecc3ebef11936ed8bfcb,3,plot,1,Very Bad,Very Good,direction,15273,,,,,2022-06-27 14:04:04,40619
600628028f2211980fd1632c,ma_choice_v4_movies_real1,600628028f2211980fd1632c,5,dialogue,1,Moderate,Good,direction,2199,,,,,2022-06-27 14:04:06,40620
600628028f2211980fd1632c,ma_choice_v4_movies_real1,600628028f2211980fd1632c,5,dialogue,1,Good,Very Good,direction,1336,,,,,2022-06-27 14:04:07,40621
6126ecc3ebef11936ed8bfcb,ma_choice_v4_movies_real1,6126ecc3ebef11936ed8bfcb,3,plot,1,Very Bad,Bad,direction,3862,,,,,2022-06-27 14:04:08,40622
600628028f2211980fd1632c,ma_choice_v4_movies_real1,600628028f2211980fd1632c,6,artistic,1,Very Bad,Very Good,direction,1918,,,,,2022-06-27 14:04:10,40623
6126ecc3ebef11936ed8bfcb,ma_choice_v4_movies_real1,6126ecc3ebef11936ed8bfcb,3,plot,1,Bad,Moderate,direction,2671,,,,,2022-06-27 14:04:11,40624
600628028f2211980fd1632c,ma_choice_v4_movies_real1,600628028f2211980fd1632c,6,artistic,1,Very Bad,Bad,direction,1993,,,,,2022-06-27 14:04:12,40625
600628028f2211980fd1632c,ma_choice_v4_movies_real1,600628028f2211980fd1632c,6,artistic,1,Bad,Moderate,direction,1329,,,,,2022-06-27 14:04:13,40626
600628028f2211980fd1632c,ma_choice_v4_movies_real1,600628028f2211980fd1632c,6,artistic,1,Moderate,Good,direction,1616,,,,,2022-06-27 14:04:15,40627
6126ecc3ebef11936ed8bfcb,ma_choice_v4_movies_real1,6126ecc3ebef11936ed8bfcb,3,plot,1,Moderate,Good,direction,4946,,,,,2022-06-27 14:04:16,40628
600628028f2211980fd1632c,ma_choice_v4_movies_real1,600628028f2211980fd1632c,6,artistic,1,Good,Very Good,direction,2199,,,,,2022-06-27 14:04:17,40629
600628028f2211980fd1632c,ma_choice_v4_movies_real1,600628028f2211980fd1632c,7,plot,1,Very Bad,Very Good,direction,1927,,,,,2022-06-27 14:04:20,40630
6126ecc3ebef11936ed8bfcb,ma_choice_v4_movies_real1,6126ecc3ebef11936ed8bfcb,3,plot,1,Good,Very Good,direction,4617,,,,,2022-06-27 14:04:21,40631
600628028f2211980fd1632c,ma_choice_v4_movies_real1,600628028f2211980fd1632c,7,plot,1,Very Bad,Bad,direction,1781,,,,,2022-06-27 14:04:22,40632
5e3b0c1e96942c0564ce3018,ma_choice_v4_movies_real1,5e3b0c1e96942c0564ce3018,7,awesome soundtrack,88,,,wad_att_rating,6516,,,,,2022-06-27 14:04:22,40633
600628028f2211980fd1632c,ma_choice_v4_movies_real1,600628028f2211980fd1632c,7,plot,1,Bad,Moderate,direction,2398,,,,,2022-06-27 14:04:24,40634
600628028f2211980fd1632c,ma_choice_v4_movies_real1,600628028f2211980fd1632c,7,plot,1,Moderate,Good,direction,1417,,,,,2022-06-27 14:04:25,40635
600628028f2211980fd1632c,ma_choice_v4_movies_real1,600628028f2211980fd1632c,7,plot,1,Good,Very Good,direction,1459,,,,,2022-06-27 14:04:27,40636
6126ecc3ebef11936ed8bfcb,ma_choice_v4_movies_real1,6126ecc3ebef11936ed8bfcb,4,visual,1,Very Bad,Very Good,direction,5410,,,,,2022-06-27 14:04:28,40637
600628028f2211980fd1632c,ma_choice_v4_movies_real1,600628028f2211980fd1632c,8,visual,1,Very Bad,Very Good,direction,1605,,,,,2022-06-27 14:04:29,40638
5e3b0c1e96942c0564ce3018,ma_choice_v4_movies_real1,5e3b0c1e96942c0564ce3018,0,artistic,63,,,wad_att_rating,8864,,,,,2022-06-27 14:04:31,40639
600628028f2211980fd1632c,ma_choice_v4_movies_real1,600628028f2211980fd1632c,8,visual,1,Very Bad,Bad,direction,1637,,,,,2022-06-27 14:04:31,40640
6126ecc3ebef11936ed8bfcb,ma_choice_v4_movies_real1,6126ecc3ebef11936ed8bfcb,4,visual,1,Very Bad,Bad,direction,3579,,,,,2022-06-27 14:04:31,40641
600628028f2211980fd1632c,ma_choice_v4_movies_real1,600628028f2211980fd1632c,8,visual,1,Bad,Moderate,direction,2063,,,,,2022-06-27 14:04:33,40642
600628028f2211980fd1632c,ma_choice_v4_movies_real1,600628028f2211980fd1632c,8,visual,1,Moderate,Good,direction,1193,,,,,2022-06-27 14:04:34,40643
600628028f2211980fd1632c,ma_choice_v4_movies_real1,600628028f2211980fd1632c,8,visual,1,Good,Very Good,direction,1353,,,,,2022-06-27 14:04:35,40644
6126ecc3ebef11936ed8bfcb,ma_choice_v4_movies_real1,6126ecc3ebef11936ed8bfcb,4,visual,1,Bad,Moderate,direction,4642,,,,,2022-06-27 14:04:36,40645
5e3b0c1e96942c0564ce3018,ma_choice_v4_movies_real1,5e3b0c1e96942c0564ce3018,1,funny,87,,,wad_att_rating,5473,,,,,2022-06-27 14:04:36,40646
6126ecc3ebef11936ed8bfcb,ma_choice_v4_movies_real1,6126ecc3ebef11936ed8bfcb,4,visual,1,Moderate,Good,direction,3077,,,,,2022-06-27 14:04:39,40647
5e3b0c1e96942c0564ce3018,ma_choice_v4_movies_real1,5e3b0c1e96942c0564ce3018,6,dialogue,63,,,wad_att_rating,4015,,,,,2022-06-27 14:04:40,40648
6126ecc3ebef11936ed8bfcb,ma_choice_v4_movies_real1,6126ecc3ebef11936ed8bfcb,4,visual,1,Good,Very Good,direction,4180,,,,,2022-06-27 14:04:43,40649
5e3b0c1e96942c0564ce3018,ma_choice_v4_movies_real1,5e3b0c1e96942c0564ce3018,2,romantic,11,,,wad_att_rating,3996,,,,,2022-06-27 14:04:44,40650
6126ecc3ebef11936ed8bfcb,ma_choice_v4_movies_real1,6126ecc3ebef11936ed8bfcb,5,great acting,1,Very Bad,Very Good,direction,2538,,,,,2022-06-27 14:04:47,40651
6126ecc3ebef11936ed8bfcb,ma_choice_v4_movies_real1,6126ecc3ebef11936ed8bfcb,5,great acting,1,Very Bad,Bad,direction,2582,,,,,2022-06-27 14:04:49,40652
5e3b0c1e96942c0564ce3018,ma_choice_v4_movies_real1,5e3b0c1e96942c0564ce3018,3,visual,50,,,wad_att_rating,5515,,,,,2022-06-27 14:04:50,40653
6126ecc3ebef11936ed8bfcb,ma_choice_v4_movies_real1,6126ecc3ebef11936ed8bfcb,5,great acting,1,Bad,Moderate,direction,1885,,,,,2022-06-27 14:04:51,40654
6126ecc3ebef11936ed8bfcb,ma_choice_v4_movies_real1,6126ecc3ebef11936ed8bfcb,5,great acting,1,Moderate,Good,direction,1956,,,,,2022-06-27 14:04:53,40655
5e3b0c1e96942c0564ce3018,ma_choice_v4_movies_real1,5e3b0c1e96942c0564ce3018,4,great acting,62,,,wad_att_rating,6288,,,,,2022-06-27 14:04:56,40656
6126ecc3ebef11936ed8bfcb,ma_choice_v4_movies_real1,6126ecc3ebef11936ed8bfcb,5,great acting,1,Good,Very Good,direction,3635,,,,,2022-06-27 14:04:57,40657
5e3b0c1e96942c0564ce3018,ma_choice_v4_movies_real1,5e3b0c1e96942c0564ce3018,8,good action,26,,,wad_att_rating,3029,,,,,2022-06-27 14:04:59,40658
6126ecc3ebef11936ed8bfcb,ma_choice_v4_movies_real1,6126ecc3ebef11936ed8bfcb,6,dialogue,1,Very Bad,Very Good,direction,2768,,,,,2022-06-27 14:05:01,40659
5e3b0c1e96942c0564ce3018,ma_choice_v4_movies_real1,5e3b0c1e96942c0564ce3018,5,plot,63,,,wad_att_rating,2776,,,,,2022-06-27 14:05:02,40660
6126ecc3ebef11936ed8bfcb,ma_choice_v4_movies_real1,6126ecc3ebef11936ed8bfcb,6,dialogue,1,Very Bad,Bad,direction,2976,,,,,2022-06-27 14:05:04,40661
6126ecc3ebef11936ed8bfcb,ma_choice_v4_movies_real1,6126ecc3ebef11936ed8bfcb,6,dialogue,1,Bad,Moderate,direction,1837,,,,,2022-06-27 14:05:06,40662
6126ecc3ebef11936ed8bfcb,ma_choice_v4_movies_real1,6126ecc3ebef11936ed8bfcb,6,dialogue,1,Moderate,Good,direction,2248,,,,,2022-06-27 14:05:08,40663
6126ecc3ebef11936ed8bfcb,ma_choice_v4_movies_real1,6126ecc3ebef11936ed8bfcb,6,dialogue,1,Good,Very Good,direction,1901,,,,,2022-06-27 14:05:10,40664
6126ecc3ebef11936ed8bfcb,ma_choice_v4_movies_real1,6126ecc3ebef11936ed8bfcb,7,romantic,1,Very Bad,Very Good,direction,2039,,,,,2022-06-27 14:05:13,40665
5e3b0c1e96942c0564ce3018,ma_choice_v4_movies_real1,5e3b0c1e96942c0564ce3018,0,Humor,1,,,lex_att_rating,3704,,,,,2022-06-27 14:05:14,40666
6126ecc3ebef11936ed8bfcb,ma_choice_v4_movies_real1,6126ecc3ebef11936ed8bfcb,7,romantic,1,Very Bad,Bad,direction,2557,,,,,2022-06-27 14:05:15,40667
6126ecc3ebef11936ed8bfcb,ma_choice_v4_movies_real1,6126ecc3ebef11936ed8bfcb,7,romantic,1,Bad,Moderate,direction,5818,,,,,2022-06-27 14:05:21,40668
6126ecc3ebef11936ed8bfcb,ma_choice_v4_movies_real1,6126ecc3ebef11936ed8bfcb,7,romantic,1,Moderate,Good,direction,3328,,,,,2022-06-27 14:05:25,40669
6126ecc3ebef11936ed8bfcb,ma_choice_v4_movies_real1,6126ecc3ebef11936ed8bfcb,7,romantic,1,Good,Very Good,direction,3731,,,,,2022-06-27 14:05:28,40670
62728c148af5805feea46dc8,ma_choice_v4_movies_real1,62728c148af5805feea46dc8,0,Plot,1,,,lex_att_rating,4102,,,,,2022-06-27 14:05:30,40671
6126ecc3ebef11936ed8bfcb,ma_choice_v4_movies_real1,6126ecc3ebef11936ed8bfcb,8,funny,1,Very Bad,Very Good,direction,2296,,,,,2022-06-27 14:05:32,40672
6126ecc3ebef11936ed8bfcb,ma_choice_v4_movies_real1,6126ecc3ebef11936ed8bfcb,8,funny,1,Very Bad,Bad,direction,2140,,,,,2022-06-27 14:05:34,40673
6126ecc3ebef11936ed8bfcb,ma_choice_v4_movies_real1,6126ecc3ebef11936ed8bfcb,8,funny,1,Bad,Moderate,direction,1669,,,,,2022-06-27 14:05:35,40674
6126ecc3ebef11936ed8bfcb,ma_choice_v4_movies_real1,6126ecc3ebef11936ed8bfcb,8,funny,1,Moderate,Good,direction,1636,,,,,2022-06-27 14:05:37,40675
6126ecc3ebef11936ed8bfcb,ma_choice_v4_movies_real1,6126ecc3ebef11936ed8bfcb,8,funny,1,Good,Very Good,direction,2724,,,,,2022-06-27 14:05:40,40676
62728c148af5805feea46dc8,ma_choice_v4_movies_real1,62728c148af5805feea46dc8,0,Creativity,1,,,ew_att_rating,19141,,,,,2022-06-27 14:06:08,40677
62728c148af5805feea46dc8,ma_choice_v4_movies_real1,62728c148af5805feea46dc8,0,Visuals,1,,,ew_att_rating,19141,,,,,2022-06-27 14:06:08,40678
62728c148af5805feea46dc8,ma_choice_v4_movies_real1,62728c148af5805feea46dc8,0,Dialogue,1,,,ew_att_rating,19141,,,,,2022-06-27 14:06:08,40679
62728c148af5805feea46dc8,ma_choice_v4_movies_real1,62728c148af5805feea46dc8,0,Acting,1,,,ew_att_rating,19141,,,,,2022-06-27 14:06:08,40680
62728c148af5805feea46dc8,ma_choice_v4_movies_real1,62728c148af5805feea46dc8,0,Plot,1,,,ew_att_rating,19141,,,,,2022-06-27 14:06:08,40681
62728c148af5805feea46dc8,ma_choice_v4_movies_real1,62728c148af5805feea46dc8,7,awesome soundtrack,12,,,wad_att_rating,6340,,,,,2022-06-27 14:06:18,40682
62728c148af5805feea46dc8,ma_choice_v4_movies_real1,62728c148af5805feea46dc8,8,good action,40,,,wad_att_rating,2809,,,,,2022-06-27 14:06:21,40683
62728c148af5805feea46dc8,ma_choice_v4_movies_real1,62728c148af5805feea46dc8,3,visual,66,,,wad_att_rating,2192,,,,,2022-06-27 14:06:23,40684
62728c148af5805feea46dc8,ma_choice_v4_movies_real1,62728c148af5805feea46dc8,0,artistic,67,,,wad_att_rating,1968,,,,,2022-06-27 14:06:25,40685
62728c148af5805feea46dc8,ma_choice_v4_movies_real1,62728c148af5805feea46dc8,5,plot,98,,,wad_att_rating,2376,,,,,2022-06-27 14:06:28,40686
62728c148af5805feea46dc8,ma_choice_v4_movies_real1,62728c148af5805feea46dc8,6,dialogue,76,,,wad_att_rating,2018,,,,,2022-06-27 14:06:30,40687
62728c148af5805feea46dc8,ma_choice_v4_movies_real1,62728c148af5805feea46dc8,4,great acting,60,,,wad_att_rating,1916,,,,,2022-06-27 14:06:32,40688
62728c148af5805feea46dc8,ma_choice_v4_movies_real1,62728c148af5805feea46dc8,2,romantic,39,,,wad_att_rating,1869,,,,,2022-06-27 14:06:34,40689
62728c148af5805feea46dc8,ma_choice_v4_movies_real1,62728c148af5805feea46dc8,1,funny,33,,,wad_att_rating,1814,,,,,2022-06-27 14:06:35,40690
5e3c1fbece3a7b000a6fd95a,ma_choice_v4_movies_real1,5e3c1fbece3a7b000a6fd95a,7,awesome soundtrack,25,,,wad_att_rating,98050,,,,,2022-06-27 14:06:50,40691
62728c148af5805feea46dc8,ma_choice_v4_movies_real1,62728c148af5805feea46dc8,0,good action,1,Very Bad,Very Good,direction,19248,,,,,2022-06-27 14:07:30,40692
5e3c1fbece3a7b000a6fd95a,ma_choice_v4_movies_real1,5e3c1fbece3a7b000a6fd95a,2,romantic,49,,,wad_att_rating,45592,,,,,2022-06-27 14:07:35,40693
62728c148af5805feea46dc8,ma_choice_v4_movies_real1,62728c148af5805feea46dc8,0,good action,1,Very Bad,Bad,direction,18230,,,,,2022-06-27 14:07:48,40694
62728c148af5805feea46dc8,ma_choice_v4_movies_real1,62728c148af5805feea46dc8,0,good action,1,Bad,Moderate,direction,7361,,,,,2022-06-27 14:07:55,40695
5e3c1fbece3a7b000a6fd95a,ma_choice_v4_movies_real1,5e3c1fbece3a7b000a6fd95a,4,great acting,88,,,wad_att_rating,27288,,,,,2022-06-27 14:08:02,40696
62728c148af5805feea46dc8,ma_choice_v4_movies_real1,62728c148af5805feea46dc8,0,good action,1,Moderate,Good,direction,9016,,,,,2022-06-27 14:08:04,40697
62728c148af5805feea46dc8,ma_choice_v4_movies_real1,62728c148af5805feea46dc8,0,good action,1,Good,Very Good,direction,1917,,,,,2022-06-27 14:08:06,40698
62728c148af5805feea46dc8,ma_choice_v4_movies_real1,62728c148af5805feea46dc8,1,visual,1,Very Bad,Very Good,direction,5020,,,,,2022-06-27 14:08:12,40699
62728c148af5805feea46dc8,ma_choice_v4_movies_real1,62728c148af5805feea46dc8,1,visual,1,Very Bad,Bad,direction,2403,,,,,2022-06-27 14:08:15,40700
62728c148af5805feea46dc8,ma_choice_v4_movies_real1,62728c148af5805feea46dc8,1,visual,1,Bad,Moderate,direction,1458,,,,,2022-06-27 14:08:16,40701
62728c148af5805feea46dc8,ma_choice_v4_movies_real1,62728c148af5805feea46dc8,1,visual,1,Moderate,Good,direction,4329,,,,,2022-06-27 14:08:20,40702
615b39c56d4a42f215089b8a,ma_choice_v4_movies_real1,615b39c56d4a42f215089b8a,5,plot,25,,,wad_att_rating,7084,,,,,2022-06-27 14:08:21,40703
62728c148af5805feea46dc8,ma_choice_v4_movies_real1,62728c148af5805feea46dc8,1,visual,1,Good,Very Good,direction,1862,,,,,2022-06-27 14:08:22,40704
615b39c56d4a42f215089b8a,ma_choice_v4_movies_real1,615b39c56d4a42f215089b8a,6,dialogue,11,,,wad_att_rating,2316,,,,,2022-06-27 14:08:23,40705
615b39c56d4a42f215089b8a,ma_choice_v4_movies_real1,615b39c56d4a42f215089b8a,4,great acting,36,,,wad_att_rating,1955,,,,,2022-06-27 14:08:25,40706
62728c148af5805feea46dc8,ma_choice_v4_movies_real1,62728c148af5805feea46dc8,2,funny,1,Very Bad,Very Good,direction,2402,,,,,2022-06-27 14:08:26,40707
615b39c56d4a42f215089b8a,ma_choice_v4_movies_real1,615b39c56d4a42f215089b8a,2,romantic,0,,,wad_att_rating,2067,,,,,2022-06-27 14:08:27,40708
62728c148af5805feea46dc8,ma_choice_v4_movies_real1,62728c148af5805feea46dc8,2,funny,1,Very Bad,Bad,direction,1429,,,,,2022-06-27 14:08:27,40709
62728c148af5805feea46dc8,ma_choice_v4_movies_real1,62728c148af5805feea46dc8,2,funny,1,Bad,Moderate,direction,1250,,,,,2022-06-27 14:08:29,40710
615b39c56d4a42f215089b8a,ma_choice_v4_movies_real1,615b39c56d4a42f215089b8a,0,artistic,13,,,wad_att_rating,2634,,,,,2022-06-27 14:08:29,40711
62728c148af5805feea46dc8,ma_choice_v4_movies_real1,62728c148af5805feea46dc8,2,funny,1,Moderate,Good,direction,1423,,,,,2022-06-27 14:08:30,40712
62728c148af5805feea46dc8,ma_choice_v4_movies_real1,62728c148af5805feea46dc8,2,funny,1,Good,Very Good,direction,1168,,,,,2022-06-27 14:08:31,40713
615b39c56d4a42f215089b8a,ma_choice_v4_movies_real1,615b39c56d4a42f215089b8a,3,visual,37,,,wad_att_rating,1801,,,,,2022-06-27 14:08:31,40714
62728c148af5805feea46dc8,ma_choice_v4_movies_real1,62728c148af5805feea46dc8,3,awesome soundtrack,1,Very Bad,Very Good,direction,1291,,,,,2022-06-27 14:08:33,40715
615b39c56d4a42f215089b8a,ma_choice_v4_movies_real1,615b39c56d4a42f215089b8a,1,funny,51,,,wad_att_rating,2361,,,,,2022-06-27 14:08:34,40716
62728c148af5805feea46dc8,ma_choice_v4_movies_real1,62728c148af5805feea46dc8,3,awesome soundtrack,1,Very Bad,Bad,direction,1048,,,,,2022-06-27 14:08:34,40717
62728c148af5805feea46dc8,ma_choice_v4_movies_real1,62728c148af5805feea46dc8,3,awesome soundtrack,1,Bad,Moderate,direction,1023,,,,,2022-06-27 14:08:35,40718
615b39c56d4a42f215089b8a,ma_choice_v4_movies_real1,615b39c56d4a42f215089b8a,8,good action,13,,,wad_att_rating,1949,,,,,2022-06-27 14:08:36,40719
62728c148af5805feea46dc8,ma_choice_v4_movies_real1,62728c148af5805feea46dc8,3,awesome soundtrack,1,Moderate,Good,direction,1024,,,,,2022-06-27 14:08:36,40720
62728c148af5805feea46dc8,ma_choice_v4_movies_real1,62728c148af5805feea46dc8,3,awesome soundtrack,1,Good,Very Good,direction,997,,,,,2022-06-27 14:08:37,40721
615b39c56d4a42f215089b8a,ma_choice_v4_movies_real1,615b39c56d4a42f215089b8a,7,awesome soundtrack,24,,,wad_att_rating,2214,,,,,2022-06-27 14:08:38,40722
62728c148af5805feea46dc8,ma_choice_v4_movies_real1,62728c148af5805feea46dc8,4,dialogue,1,Very Bad,Very Good,direction,1034,,,,,2022-06-27 14:08:39,40723
62728c148af5805feea46dc8,ma_choice_v4_movies_real1,62728c148af5805feea46dc8,4,dialogue,1,Very Bad,Bad,direction,1679,,,,,2022-06-27 14:08:41,40724
62728c148af5805feea46dc8,ma_choice_v4_movies_real1,62728c148af5805feea46dc8,4,dialogue,1,Bad,Moderate,direction,908,,,,,2022-06-27 14:08:42,40725
62728c148af5805feea46dc8,ma_choice_v4_movies_real1,62728c148af5805feea46dc8,4,dialogue,1,Moderate,Good,direction,953,,,,,2022-06-27 14:08:43,40726
62728c148af5805feea46dc8,ma_choice_v4_movies_real1,62728c148af5805feea46dc8,4,dialogue,1,Good,Very Good,direction,901,,,,,2022-06-27 14:08:44,40727
5e3c1fbece3a7b000a6fd95a,ma_choice_v4_movies_real1,5e3c1fbece3a7b000a6fd95a,5,plot,96,,,wad_att_rating,42414,,,,,2022-06-27 14:08:45,40728
62728c148af5805feea46dc8,ma_choice_v4_movies_real1,62728c148af5805feea46dc8,5,romantic,1,Very Bad,Very Good,direction,1316,,,,,2022-06-27 14:08:46,40729
62728c148af5805feea46dc8,ma_choice_v4_movies_real1,62728c148af5805feea46dc8,5,romantic,1,Very Bad,Bad,direction,950,,,,,2022-06-27 14:08:47,40730
62728c148af5805feea46dc8,ma_choice_v4_movies_real1,62728c148af5805feea46dc8,5,romantic,1,Bad,Moderate,direction,2116,,,,,2022-06-27 14:08:49,40731
62728c148af5805feea46dc8,ma_choice_v4_movies_real1,62728c148af5805feea46dc8,5,romantic,1,Moderate,Good,direction,1308,,,,,2022-06-27 14:08:50,40732
62728c148af5805feea46dc8,ma_choice_v4_movies_real1,62728c148af5805feea46dc8,5,romantic,1,Good,Very Good,direction,951,,,,,2022-06-27 14:08:51,40733
615b39c56d4a42f215089b8a,ma_choice_v4_movies_real1,615b39c56d4a42f215089b8a,0,Humor,1,,,lex_att_rating,5722,,,,,2022-06-27 14:08:53,40734
62728c148af5805feea46dc8,ma_choice_v4_movies_real1,62728c148af5805feea46dc8,6,great acting,1,Very Bad,Very Good,direction,2627,,,,,2022-06-27 14:08:55,40735
62728c148af5805feea46dc8,ma_choice_v4_movies_real1,62728c148af5805feea46dc8,6,great acting,1,Very Bad,Bad,direction,1134,,,,,2022-06-27 14:08:56,40736
62728c148af5805feea46dc8,ma_choice_v4_movies_real1,62728c148af5805feea46dc8,6,great acting,1,Bad,Moderate,direction,948,,,,,2022-06-27 14:08:57,40737
62728c148af5805feea46dc8,ma_choice_v4_movies_real1,62728c148af5805feea46dc8,6,great acting,1,Moderate,Good,direction,955,,,,,2022-06-27 14:08:58,40738
62728c148af5805feea46dc8,ma_choice_v4_movies_real1,62728c148af5805feea46dc8,6,great acting,1,Good,Very Good,direction,951,,,,,2022-06-27 14:08:59,40739
62728c148af5805feea46dc8,ma_choice_v4_movies_real1,62728c148af5805feea46dc8,7,plot,1,Very Bad,Very Good,direction,2006,,,,,2022-06-27 14:09:01,40740
62728c148af5805feea46dc8,ma_choice_v4_movies_real1,62728c148af5805feea46dc8,7,plot,1,Very Bad,Bad,direction,1560,,,,,2022-06-27 14:09:03,40741
62728c148af5805feea46dc8,ma_choice_v4_movies_real1,62728c148af5805feea46dc8,7,plot,1,Bad,Moderate,direction,1253,,,,,2022-06-27 14:09:04,40742
62728c148af5805feea46dc8,ma_choice_v4_movies_real1,62728c148af5805feea46dc8,7,plot,1,Moderate,Good,direction,904,,,,,2022-06-27 14:09:05,40743
62728c148af5805feea46dc8,ma_choice_v4_movies_real1,62728c148af5805feea46dc8,7,plot,1,Good,Very Good,direction,824,,,,,2022-06-27 14:09:06,40744
62728c148af5805feea46dc8,ma_choice_v4_movies_real1,62728c148af5805feea46dc8,8,artistic,1,Very Bad,Very Good,direction,904,,,,,2022-06-27 14:09:08,40745
615b39c56d4a42f215089b8a,ma_choice_v4_movies_real1,615b39c56d4a42f215089b8a,0,Humor,1,,,ew_att_rating,12854,,,,,2022-06-27 14:09:08,40746
615b39c56d4a42f215089b8a,ma_choice_v4_movies_real1,615b39c56d4a42f215089b8a,0,Visuals,1,,,ew_att_rating,12854,,,,,2022-06-27 14:09:08,40747
615b39c56d4a42f215089b8a,ma_choice_v4_movies_real1,615b39c56d4a42f215089b8a,0,Soundtrack,1,,,ew_att_rating,12854,,,,,2022-06-27 14:09:08,40748
62728c148af5805feea46dc8,ma_choice_v4_movies_real1,62728c148af5805feea46dc8,8,artistic,1,Very Bad,Bad,direction,565,,,,,2022-06-27 14:09:08,40749
62728c148af5805feea46dc8,ma_choice_v4_movies_real1,62728c148af5805feea46dc8,8,artistic,1,Bad,Moderate,direction,618,,,,,2022-06-27 14:09:09,40750
62728c148af5805feea46dc8,ma_choice_v4_movies_real1,62728c148af5805feea46dc8,8,artistic,1,Moderate,Good,direction,572,,,,,2022-06-27 14:09:09,40751
62728c148af5805feea46dc8,ma_choice_v4_movies_real1,62728c148af5805feea46dc8,8,artistic,1,Good,Very Good,direction,602,,,,,2022-06-27 14:09:10,40752
5e3c1fbece3a7b000a6fd95a,ma_choice_v4_movies_real1,5e3c1fbece3a7b000a6fd95a,3,visual,100,,,wad_att_rating,51738,,,,,2022-06-27 14:09:36,40753
5e3c1fbece3a7b000a6fd95a,ma_choice_v4_movies_real1,5e3c1fbece3a7b000a6fd95a,0,artistic,87,,,wad_att_rating,33151,,,,,2022-06-27 14:10:09,40754
55b8d0bffdf99b0f2859fe73,ma_choice_v4_movies_real1,55b8d0bffdf99b0f2859fe73,0,awesome soundtrack,1,Very Bad,Very Good,direction,14138,,,,,2022-06-27 14:10:19,40755
55b8d0bffdf99b0f2859fe73,ma_choice_v4_movies_real1,55b8d0bffdf99b0f2859fe73,0,awesome soundtrack,1,Very Bad,Bad,direction,6379,,,,,2022-06-27 14:10:25,40756
55b8d0bffdf99b0f2859fe73,ma_choice_v4_movies_real1,55b8d0bffdf99b0f2859fe73,0,awesome soundtrack,1,Bad,Moderate,direction,4259,,,,,2022-06-27 14:10:30,40757
55b8d0bffdf99b0f2859fe73,ma_choice_v4_movies_real1,55b8d0bffdf99b0f2859fe73,0,awesome soundtrack,1,Moderate,Good,direction,4203,,,,,2022-06-27 14:10:34,40758
55b8d0bffdf99b0f2859fe73,ma_choice_v4_movies_real1,55b8d0bffdf99b0f2859fe73,0,awesome soundtrack,1,Good,Very Good,direction,3699,,,,,2022-06-27 14:10:38,40759
55b8d0bffdf99b0f2859fe73,ma_choice_v4_movies_real1,55b8d0bffdf99b0f2859fe73,1,plot,1,Very Bad,Very Good,direction,3833,,,,,2022-06-27 14:10:43,40760
55b8d0bffdf99b0f2859fe73,ma_choice_v4_movies_real1,55b8d0bffdf99b0f2859fe73,1,plot,1,Very Bad,Bad,direction,1958,,,,,2022-06-27 14:10:45,40761
55b8d0bffdf99b0f2859fe73,ma_choice_v4_movies_real1,55b8d0bffdf99b0f2859fe73,1,plot,1,Bad,Moderate,direction,2524,,,,,2022-06-27 14:10:47,40762
55b8d0bffdf99b0f2859fe73,ma_choice_v4_movies_real1,55b8d0bffdf99b0f2859fe73,1,plot,1,Moderate,Good,direction,2184,,,,,2022-06-27 14:10:50,40763
55b8d0bffdf99b0f2859fe73,ma_choice_v4_movies_real1,55b8d0bffdf99b0f2859fe73,1,plot,1,Good,Very Good,direction,2486,,,,,2022-06-27 14:10:52,40764
55b8d0bffdf99b0f2859fe73,ma_choice_v4_movies_real1,55b8d0bffdf99b0f2859fe73,2,artistic,1,Very Bad,Very Good,direction,3158,,,,,2022-06-27 14:10:56,40765
55b8d0bffdf99b0f2859fe73,ma_choice_v4_movies_real1,55b8d0bffdf99b0f2859fe73,2,artistic,1,Very Bad,Bad,direction,2399,,,,,2022-06-27 14:10:59,40766
55b8d0bffdf99b0f2859fe73,ma_choice_v4_movies_real1,55b8d0bffdf99b0f2859fe73,2,artistic,1,Bad,Moderate,direction,2344,,,,,2022-06-27 14:11:01,40767
55b8d0bffdf99b0f2859fe73,ma_choice_v4_movies_real1,55b8d0bffdf99b0f2859fe73,2,artistic,1,Moderate,Good,direction,2147,,,,,2022-06-27 14:11:03,40768
5e3c1fbece3a7b000a6fd95a,ma_choice_v4_movies_real1,5e3c1fbece3a7b000a6fd95a,6,dialogue,75,,,wad_att_rating,60379,,,,,2022-06-27 14:11:10,40769
55b8d0bffdf99b0f2859fe73,ma_choice_v4_movies_real1,55b8d0bffdf99b0f2859fe73,2,artistic,1,Good,Very Good,direction,40310,,,,,2022-06-27 14:11:43,40770
55b8d0bffdf99b0f2859fe73,ma_choice_v4_movies_real1,55b8d0bffdf99b0f2859fe73,3,visual,1,Very Bad,Very Good,direction,2817,,,,,2022-06-27 14:11:53,40771
55b8d0bffdf99b0f2859fe73,ma_choice_v4_movies_real1,55b8d0bffdf99b0f2859fe73,3,visual,1,Very Bad,Bad,direction,1262,,,,,2022-06-27 14:11:54,40772
55b8d0bffdf99b0f2859fe73,ma_choice_v4_movies_real1,55b8d0bffdf99b0f2859fe73,3,visual,1,Bad,Moderate,direction,2010,,,,,2022-06-27 14:11:56,40773
55b8d0bffdf99b0f2859fe73,ma_choice_v4_movies_real1,55b8d0bffdf99b0f2859fe73,3,visual,1,Moderate,Good,direction,2080,,,,,2022-06-27 14:11:58,40774
55b8d0bffdf99b0f2859fe73,ma_choice_v4_movies_real1,55b8d0bffdf99b0f2859fe73,3,visual,1,Good,Very Good,direction,1480,,,,,2022-06-27 14:12:00,40775
55b8d0bffdf99b0f2859fe73,ma_choice_v4_movies_real1,55b8d0bffdf99b0f2859fe73,4,funny,1,Very Bad,Very Good,direction,2067,,,,,2022-06-27 14:12:02,40776
55b8d0bffdf99b0f2859fe73,ma_choice_v4_movies_real1,55b8d0bffdf99b0f2859fe73,4,funny,1,Very Bad,Bad,direction,1596,,,,,2022-06-27 14:12:04,40777
55b8d0bffdf99b0f2859fe73,ma_choice_v4_movies_real1,55b8d0bffdf99b0f2859fe73,4,funny,1,Bad,Moderate,direction,1953,,,,,2022-06-27 14:12:06,40778
5e3c1fbece3a7b000a6fd95a,ma_choice_v4_movies_real1,5e3c1fbece3a7b000a6fd95a,1,funny,75,,,wad_att_rating,57572,,,,,2022-06-27 14:12:07,40779
55b8d0bffdf99b0f2859fe73,ma_choice_v4_movies_real1,55b8d0bffdf99b0f2859fe73,4,funny,1,Moderate,Good,direction,1605,,,,,2022-06-27 14:12:07,40780
55b8d0bffdf99b0f2859fe73,ma_choice_v4_movies_real1,55b8d0bffdf99b0f2859fe73,4,funny,1,Good,Very Good,direction,1666,,,,,2022-06-27 14:12:09,40781
55b8d0bffdf99b0f2859fe73,ma_choice_v4_movies_real1,55b8d0bffdf99b0f2859fe73,5,good action,1,Very Bad,Very Good,direction,1169,,,,,2022-06-27 14:12:11,40782
55b8d0bffdf99b0f2859fe73,ma_choice_v4_movies_real1,55b8d0bffdf99b0f2859fe73,5,good action,1,Very Bad,Bad,direction,1283,,,,,2022-06-27 14:12:12,40783
55b8d0bffdf99b0f2859fe73,ma_choice_v4_movies_real1,55b8d0bffdf99b0f2859fe73,5,good action,1,Bad,Moderate,direction,1353,,,,,2022-06-27 14:12:14,40784
55b8d0bffdf99b0f2859fe73,ma_choice_v4_movies_real1,55b8d0bffdf99b0f2859fe73,5,good action,1,Moderate,Good,direction,1925,,,,,2022-06-27 14:12:16,40785
55b8d0bffdf99b0f2859fe73,ma_choice_v4_movies_real1,55b8d0bffdf99b0f2859fe73,5,good action,1,Good,Very Good,direction,1449,,,,,2022-06-27 14:12:17,40786
55b8d0bffdf99b0f2859fe73,ma_choice_v4_movies_real1,55b8d0bffdf99b0f2859fe73,6,great acting,1,Very Bad,Very Good,direction,1395,,,,,2022-06-27 14:12:19,40787
55b8d0bffdf99b0f2859fe73,ma_choice_v4_movies_real1,55b8d0bffdf99b0f2859fe73,6,great acting,1,Very Bad,Bad,direction,1347,,,,,2022-06-27 14:12:20,40788
55b8d0bffdf99b0f2859fe73,ma_choice_v4_movies_real1,55b8d0bffdf99b0f2859fe73,6,great acting,1,Bad,Moderate,direction,1353,,,,,2022-06-27 14:12:22,40789
55b8d0bffdf99b0f2859fe73,ma_choice_v4_movies_real1,55b8d0bffdf99b0f2859fe73,6,great acting,1,Moderate,Good,direction,1424,,,,,2022-06-27 14:12:23,40790
55b8d0bffdf99b0f2859fe73,ma_choice_v4_movies_real1,55b8d0bffdf99b0f2859fe73,6,great acting,1,Good,Very Good,direction,1611,,,,,2022-06-27 14:12:25,40791
55b8d0bffdf99b0f2859fe73,ma_choice_v4_movies_real1,55b8d0bffdf99b0f2859fe73,7,romantic,1,Very Bad,Very Good,direction,2078,,,,,2022-06-27 14:12:28,40792
55b8d0bffdf99b0f2859fe73,ma_choice_v4_movies_real1,55b8d0bffdf99b0f2859fe73,7,romantic,1,Very Bad,Bad,direction,1463,,,,,2022-06-27 14:12:29,40793
5e3c1fbece3a7b000a6fd95a,ma_choice_v4_movies_real1,5e3c1fbece3a7b000a6fd95a,8,good action,100,,,wad_att_rating,23076,,,,,2022-06-27 14:12:30,40794
55b8d0bffdf99b0f2859fe73,ma_choice_v4_movies_real1,55b8d0bffdf99b0f2859fe73,7,romantic,1,Bad,Moderate,direction,1565,,,,,2022-06-27 14:12:31,40795
55b8d0bffdf99b0f2859fe73,ma_choice_v4_movies_real1,55b8d0bffdf99b0f2859fe73,7,romantic,1,Moderate,Good,direction,1498,,,,,2022-06-27 14:12:32,40796
55b8d0bffdf99b0f2859fe73,ma_choice_v4_movies_real1,55b8d0bffdf99b0f2859fe73,7,romantic,1,Good,Very Good,direction,2329,,,,,2022-06-27 14:12:34,40797
55b8d0bffdf99b0f2859fe73,ma_choice_v4_movies_real1,55b8d0bffdf99b0f2859fe73,8,dialogue,1,Very Bad,Very Good,direction,1512,,,,,2022-06-27 14:12:37,40798
55b8d0bffdf99b0f2859fe73,ma_choice_v4_movies_real1,55b8d0bffdf99b0f2859fe73,8,dialogue,1,Very Bad,Bad,direction,1383,,,,,2022-06-27 14:12:39,40799
55b8d0bffdf99b0f2859fe73,ma_choice_v4_movies_real1,55b8d0bffdf99b0f2859fe73,8,dialogue,1,Bad,Moderate,direction,1281,,,,,2022-06-27 14:12:40,40800
55b8d0bffdf99b0f2859fe73,ma_choice_v4_movies_real1,55b8d0bffdf99b0f2859fe73,8,dialogue,1,Moderate,Good,direction,1324,,,,,2022-06-27 14:12:41,40801
55b8d0bffdf99b0f2859fe73,ma_choice_v4_movies_real1,55b8d0bffdf99b0f2859fe73,8,dialogue,1,Good,Very Good,direction,1338,,,,,2022-06-27 14:12:43,40802
5e3b0c1e96942c0564ce3018,ma_choice_v4_movies_real1,5e3b0c1e96942c0564ce3018,0,plot,1,Very Bad,Very Good,direction,14505,,,,,2022-06-27 14:12:55,40803
5e3b0c1e96942c0564ce3018,ma_choice_v4_movies_real1,5e3b0c1e96942c0564ce3018,0,plot,1,Very Bad,Bad,direction,10455,,,,,2022-06-27 14:13:05,40804
5e3c1fbece3a7b000a6fd95a,ma_choice_v4_movies_real1,5e3c1fbece3a7b000a6fd95a,0,Plot,1,,,ew_att_rating,16285,,,,,2022-06-27 14:13:07,40805
5e3c1fbece3a7b000a6fd95a,ma_choice_v4_movies_real1,5e3c1fbece3a7b000a6fd95a,0,Action Scenes,1,,,ew_att_rating,16285,,,,,2022-06-27 14:13:07,40806
5e3c1fbece3a7b000a6fd95a,ma_choice_v4_movies_real1,5e3c1fbece3a7b000a6fd95a,0,Acting,1,,,ew_att_rating,16285,,,,,2022-06-27 14:13:07,40807
5e3c1fbece3a7b000a6fd95a,ma_choice_v4_movies_real1,5e3c1fbece3a7b000a6fd95a,0,Creativity,1,,,ew_att_rating,16285,,,,,2022-06-27 14:13:07,40808
5e3b0c1e96942c0564ce3018,ma_choice_v4_movies_real1,5e3b0c1e96942c0564ce3018,0,plot,1,Bad,Moderate,direction,10296,,,,,2022-06-27 14:13:16,40809
615b39c56d4a42f215089b8a,ma_choice_v4_movies_real1,615b39c56d4a42f215089b8a,0,romantic,1,Very Bad,Very Good,direction,13487,,,,,2022-06-27 14:13:25,40810
615b39c56d4a42f215089b8a,ma_choice_v4_movies_real1,615b39c56d4a42f215089b8a,0,romantic,1,Very Bad,Bad,direction,7088,,,,,2022-06-27 14:13:32,40811
5e3b0c1e96942c0564ce3018,ma_choice_v4_movies_real1,5e3b0c1e96942c0564ce3018,0,plot,1,Moderate,Good,direction,17252,,,,,2022-06-27 14:13:33,40812
615b39c56d4a42f215089b8a,ma_choice_v4_movies_real1,615b39c56d4a42f215089b8a,0,romantic,1,Bad,Moderate,direction,3000,,,,,2022-06-27 14:13:34,40813
5e3c1fbece3a7b000a6fd95a,ma_choice_v4_movies_real1,5e3c1fbece3a7b000a6fd95a,0,Romantic Scenes,1,,,lex_att_rating,15957,,,,,2022-06-27 14:13:35,40814
5e3b0c1e96942c0564ce3018,ma_choice_v4_movies_real1,5e3b0c1e96942c0564ce3018,0,plot,1,Good,Very Good,direction,3664,,,,,2022-06-27 14:13:37,40815
615b39c56d4a42f215089b8a,ma_choice_v4_movies_real1,615b39c56d4a42f215089b8a,0,romantic,1,Moderate,Good,direction,3184,,,,,2022-06-27 14:13:38,40816
615b39c56d4a42f215089b8a,ma_choice_v4_movies_real1,615b39c56d4a42f215089b8a,0,romantic,1,Good,Very Good,direction,1893,,,,,2022-06-27 14:13:39,40817
5e3b0c1e96942c0564ce3018,ma_choice_v4_movies_real1,5e3b0c1e96942c0564ce3018,1,good action,1,Very Bad,Very Good,direction,4111,,,,,2022-06-27 14:13:42,40818
615b39c56d4a42f215089b8a,ma_choice_v4_movies_real1,615b39c56d4a42f215089b8a,1,funny,1,Very Bad,Very Good,direction,1826,,,,,2022-06-27 14:13:42,40819
615b39c56d4a42f215089b8a,ma_choice_v4_movies_real1,615b39c56d4a42f215089b8a,1,funny,1,Very Bad,Bad,direction,1778,,,,,2022-06-27 14:13:44,40820
615b39c56d4a42f215089b8a,ma_choice_v4_movies_real1,615b39c56d4a42f215089b8a,1,funny,1,Bad,Moderate,direction,1289,,,,,2022-06-27 14:13:45,40821
615b39c56d4a42f215089b8a,ma_choice_v4_movies_real1,615b39c56d4a42f215089b8a,1,funny,1,Moderate,Good,direction,1335,,,,,2022-06-27 14:13:47,40822
615b39c56d4a42f215089b8a,ma_choice_v4_movies_real1,615b39c56d4a42f215089b8a,1,funny,1,Good,Very Good,direction,1206,,,,,2022-06-27 14:13:48,40823
5e3b0c1e96942c0564ce3018,ma_choice_v4_movies_real1,5e3b0c1e96942c0564ce3018,1,good action,1,Very Bad,Bad,direction,6285,,,,,2022-06-27 14:13:49,40824
615b39c56d4a42f215089b8a,ma_choice_v4_movies_real1,615b39c56d4a42f215089b8a,2,visual,1,Very Bad,Very Good,direction,1454,,,,,2022-06-27 14:13:50,40825
615b39c56d4a42f215089b8a,ma_choice_v4_movies_real1,615b39c56d4a42f215089b8a,2,visual,1,Very Bad,Bad,direction,1075,,,,,2022-06-27 14:13:51,40826
5c36e40e299f82000103ce0a,ma_choice_v4_movies_real1,5c36e40e299f82000103ce0a,0,Visuals,1,,,ew_att_rating,12956,,,,,2022-06-27 14:13:52,40827
5c36e40e299f82000103ce0a,ma_choice_v4_movies_real1,5c36e40e299f82000103ce0a,0,Acting,1,,,ew_att_rating,12956,,,,,2022-06-27 14:13:52,40828
5c36e40e299f82000103ce0a,ma_choice_v4_movies_real1,5c36e40e299f82000103ce0a,0,Action Scenes,1,,,ew_att_rating,12956,,,,,2022-06-27 14:13:52,40829
5c36e40e299f82000103ce0a,ma_choice_v4_movies_real1,5c36e40e299f82000103ce0a,0,Plot,1,,,ew_att_rating,12956,,,,,2022-06-27 14:13:52,40830
5e3b0c1e96942c0564ce3018,ma_choice_v4_movies_real1,5e3b0c1e96942c0564ce3018,1,good action,1,Bad,Moderate,direction,3221,,,,,2022-06-27 14:13:52,40831
615b39c56d4a42f215089b8a,ma_choice_v4_movies_real1,615b39c56d4a42f215089b8a,2,visual,1,Bad,Moderate,direction,2654,,,,,2022-06-27 14:13:54,40832
5e3b0c1e96942c0564ce3018,ma_choice_v4_movies_real1,5e3b0c1e96942c0564ce3018,1,good action,1,Moderate,Good,direction,2317,,,,,2022-06-27 14:13:54,40833
615b39c56d4a42f215089b8a,ma_choice_v4_movies_real1,615b39c56d4a42f215089b8a,2,visual,1,Moderate,Good,direction,1205,,,,,2022-06-27 14:13:55,40834
615b39c56d4a42f215089b8a,ma_choice_v4_movies_real1,615b39c56d4a42f215089b8a,2,visual,1,Good,Very Good,direction,1170,,,,,2022-06-27 14:13:56,40835
5e3b0c1e96942c0564ce3018,ma_choice_v4_movies_real1,5e3b0c1e96942c0564ce3018,1,good action,1,Good,Very Good,direction,2310,,,,,2022-06-27 14:13:57,40836
615b39c56d4a42f215089b8a,ma_choice_v4_movies_real1,615b39c56d4a42f215089b8a,3,dialogue,1,Very Bad,Very Good,direction,1317,,,,,2022-06-27 14:13:58,40837
5e3b0c1e96942c0564ce3018,ma_choice_v4_movies_real1,5e3b0c1e96942c0564ce3018,2,great acting,1,Very Bad,Very Good,direction,1795,,,,,2022-06-27 14:14:00,40838
615b39c56d4a42f215089b8a,ma_choice_v4_movies_real1,615b39c56d4a42f215089b8a,3,dialogue,1,Very Bad,Bad,direction,1424,,,,,2022-06-27 14:14:00,40839
615b39c56d4a42f215089b8a,ma_choice_v4_movies_real1,615b39c56d4a42f215089b8a,3,dialogue,1,Bad,Moderate,direction,1209,,,,,2022-06-27 14:14:01,40840
5e3b0c1e96942c0564ce3018,ma_choice_v4_movies_real1,5e3b0c1e96942c0564ce3018,2,great acting,1,Very Bad,Bad,direction,2379,,,,,2022-06-27 14:14:02,40841
615b39c56d4a42f215089b8a,ma_choice_v4_movies_real1,615b39c56d4a42f215089b8a,3,dialogue,1,Moderate,Good,direction,1350,,,,,2022-06-27 14:14:02,40842
615b39c56d4a42f215089b8a,ma_choice_v4_movies_real1,615b39c56d4a42f215089b8a,3,dialogue,1,Good,Very Good,direction,1323,,,,,2022-06-27 14:14:04,40843
5e3b0c1e96942c0564ce3018,ma_choice_v4_movies_real1,5e3b0c1e96942c0564ce3018,2,great acting,1,Bad,Moderate,direction,3373,,,,,2022-06-27 14:14:05,40844
5c36e40e299f82000103ce0a,ma_choice_v4_movies_real1,5c36e40e299f82000103ce0a,0,Acting,1,,,lex_att_rating,7650,,,,,2022-06-27 14:14:05,40845
615b39c56d4a42f215089b8a,ma_choice_v4_movies_real1,615b39c56d4a42f215089b8a,4,artistic,1,Very Bad,Very Good,direction,1328,,,,,2022-06-27 14:14:06,40846
615b39c56d4a42f215089b8a,ma_choice_v4_movies_real1,615b39c56d4a42f215089b8a,4,artistic,1,Very Bad,Bad,direction,1300,,,,,2022-06-27 14:14:07,40847
615b39c56d4a42f215089b8a,ma_choice_v4_movies_real1,615b39c56d4a42f215089b8a,4,artistic,1,Bad,Moderate,direction,1159,,,,,2022-06-27 14:14:08,40848
5e3b0c1e96942c0564ce3018,ma_choice_v4_movies_real1,5e3b0c1e96942c0564ce3018,2,great acting,1,Moderate,Good,direction,3033,,,,,2022-06-27 14:14:08,40849
615b39c56d4a42f215089b8a,ma_choice_v4_movies_real1,615b39c56d4a42f215089b8a,4,artistic,1,Moderate,Good,direction,998,,,,,2022-06-27 14:14:09,40850
615b39c56d4a42f215089b8a,ma_choice_v4_movies_real1,615b39c56d4a42f215089b8a,4,artistic,1,Good,Very Good,direction,1010,,,,,2022-06-27 14:14:10,40851
5e3b0c1e96942c0564ce3018,ma_choice_v4_movies_real1,5e3b0c1e96942c0564ce3018,2,great acting,1,Good,Very Good,direction,2541,,,,,2022-06-27 14:14:11,40852
615b39c56d4a42f215089b8a,ma_choice_v4_movies_real1,615b39c56d4a42f215089b8a,5,great acting,1,Very Bad,Very Good,direction,997,,,,,2022-06-27 14:14:12,40853
615b39c56d4a42f215089b8a,ma_choice_v4_movies_real1,615b39c56d4a42f215089b8a,5,great acting,1,Very Bad,Bad,direction,817,,,,,2022-06-27 14:14:13,40854
615b39c56d4a42f215089b8a,ma_choice_v4_movies_real1,615b39c56d4a42f215089b8a,5,great acting,1,Bad,Moderate,direction,890,,,,,2022-06-27 14:14:13,40855
5e3b0c1e96942c0564ce3018,ma_choice_v4_movies_real1,5e3b0c1e96942c0564ce3018,3,dialogue,1,Very Bad,Very Good,direction,2034,,,,,2022-06-27 14:14:14,40856
615b39c56d4a42f215089b8a,ma_choice_v4_movies_real1,615b39c56d4a42f215089b8a,5,great acting,1,Moderate,Good,direction,808,,,,,2022-06-27 14:14:14,40857
615b39c56d4a42f215089b8a,ma_choice_v4_movies_real1,615b39c56d4a42f215089b8a,5,great acting,1,Good,Very Good,direction,836,,,,,2022-06-27 14:14:15,40858
5c36e40e299f82000103ce0a,ma_choice_v4_movies_real1,5c36e40e299f82000103ce0a,3,visual,62,,,wad_att_rating,5160,,,,,2022-06-27 14:14:15,40859
5e3b0c1e96942c0564ce3018,ma_choice_v4_movies_real1,5e3b0c1e96942c0564ce3018,3,dialogue,1,Very Bad,Bad,direction,2683,,,,,2022-06-27 14:14:17,40860
615b39c56d4a42f215089b8a,ma_choice_v4_movies_real1,615b39c56d4a42f215089b8a,6,plot,1,Very Bad,Very Good,direction,910,,,,,2022-06-27 14:14:17,40861
615b39c56d4a42f215089b8a,ma_choice_v4_movies_real1,615b39c56d4a42f215089b8a,6,plot,1,Very Bad,Bad,direction,808,,,,,2022-06-27 14:14:18,40862
5c36e40e299f82000103ce0a,ma_choice_v4_movies_real1,5c36e40e299f82000103ce0a,8,good action,63,,,wad_att_rating,3033,,,,,2022-06-27 14:14:19,40863
615b39c56d4a42f215089b8a,ma_choice_v4_movies_real1,615b39c56d4a42f215089b8a,6,plot,1,Bad,Moderate,direction,878,,,,,2022-06-27 14:14:19,40864
5e3b0c1e96942c0564ce3018,ma_choice_v4_movies_real1,5e3b0c1e96942c0564ce3018,3,dialogue,1,Bad,Moderate,direction,2641,,,,,2022-06-27 14:14:19,40865
615b39c56d4a42f215089b8a,ma_choice_v4_movies_real1,615b39c56d4a42f215089b8a,6,plot,1,Moderate,Good,direction,850,,,,,2022-06-27 14:14:19,40866
615b39c56d4a42f215089b8a,ma_choice_v4_movies_real1,615b39c56d4a42f215089b8a,6,plot,1,Good,Very Good,direction,783,,,,,2022-06-27 14:14:20,40867
5e3b0c1e96942c0564ce3018,ma_choice_v4_movies_real1,5e3b0c1e96942c0564ce3018,3,dialogue,1,Moderate,Good,direction,2544,,,,,2022-06-27 14:14:22,40868
5c36e40e299f82000103ce0a,ma_choice_v4_movies_real1,5c36e40e299f82000103ce0a,4,great acting,77,,,wad_att_rating,3687,,,,,2022-06-27 14:14:22,40869
615b39c56d4a42f215089b8a,ma_choice_v4_movies_real1,615b39c56d4a42f215089b8a,7,good action,1,Very Bad,Very Good,direction,1110,,,,,2022-06-27 14:14:22,40870
615b39c56d4a42f215089b8a,ma_choice_v4_movies_real1,615b39c56d4a42f215089b8a,7,good action,1,Very Bad,Bad,direction,886,,,,,2022-06-27 14:14:23,40871
5e3b0c1e96942c0564ce3018,ma_choice_v4_movies_real1,5e3b0c1e96942c0564ce3018,3,dialogue,1,Good,Very Good,direction,2199,,,,,2022-06-27 14:14:24,40872
615b39c56d4a42f215089b8a,ma_choice_v4_movies_real1,615b39c56d4a42f215089b8a,7,good action,1,Bad,Moderate,direction,1951,,,,,2022-06-27 14:14:25,40873
5c36e40e299f82000103ce0a,ma_choice_v4_movies_real1,5c36e40e299f82000103ce0a,0,artistic,52,,,wad_att_rating,3129,,,,,2022-06-27 14:14:25,40874
615b39c56d4a42f215089b8a,ma_choice_v4_movies_real1,615b39c56d4a42f215089b8a,7,good action,1,Moderate,Good,direction,774,,,,,2022-06-27 14:14:26,40875
615b39c56d4a42f215089b8a,ma_choice_v4_movies_real1,615b39c56d4a42f215089b8a,7,good action,1,Good,Very Good,direction,900,,,,,2022-06-27 14:14:27,40876
615b39c56d4a42f215089b8a,ma_choice_v4_movies_real1,615b39c56d4a42f215089b8a,8,awesome soundtrack,1,Very Bad,Very Good,direction,976,,,,,2022-06-27 14:14:28,40877
615b39c56d4a42f215089b8a,ma_choice_v4_movies_real1,615b39c56d4a42f215089b8a,8,awesome soundtrack,1,Very Bad,Bad,direction,1020,,,,,2022-06-27 14:14:30,40878
5c36e40e299f82000103ce0a,ma_choice_v4_movies_real1,5c36e40e299f82000103ce0a,1,funny,38,,,wad_att_rating,4312,,,,,2022-06-27 14:14:30,40879
615b39c56d4a42f215089b8a,ma_choice_v4_movies_real1,615b39c56d4a42f215089b8a,8,awesome soundtrack,1,Bad,Moderate,direction,938,,,,,2022-06-27 14:14:30,40880
615b39c56d4a42f215089b8a,ma_choice_v4_movies_real1,615b39c56d4a42f215089b8a,8,awesome soundtrack,1,Moderate,Good,direction,837,,,,,2022-06-27 14:14:32,40881
615b39c56d4a42f215089b8a,ma_choice_v4_movies_real1,615b39c56d4a42f215089b8a,8,awesome soundtrack,1,Good,Very Good,direction,876,,,,,2022-06-27 14:14:32,40882
5e3b0c1e96942c0564ce3018,ma_choice_v4_movies_real1,5e3b0c1e96942c0564ce3018,4,romantic,1,Very Bad,Very Good,direction,7291,,,,,2022-06-27 14:14:32,40883
5c36e40e299f82000103ce0a,ma_choice_v4_movies_real1,5c36e40e299f82000103ce0a,6,dialogue,38,,,wad_att_rating,2521,,,,,2022-06-27 14:14:32,40884
5e3b0c1e96942c0564ce3018,ma_choice_v4_movies_real1,5e3b0c1e96942c0564ce3018,4,romantic,1,Very Bad,Bad,direction,1839,,,,,2022-06-27 14:14:34,40885
5c36e40e299f82000103ce0a,ma_choice_v4_movies_real1,5c36e40e299f82000103ce0a,2,romantic,0,,,wad_att_rating,2588,,,,,2022-06-27 14:14:35,40886
5e3b0c1e96942c0564ce3018,ma_choice_v4_movies_real1,5e3b0c1e96942c0564ce3018,4,romantic,1,Bad,Moderate,direction,2089,,,,,2022-06-27 14:14:36,40887
5c36e40e299f82000103ce0a,ma_choice_v4_movies_real1,5c36e40e299f82000103ce0a,7,awesome soundtrack,2,,,wad_att_rating,2286,,,,,2022-06-27 14:14:37,40888
5e3b0c1e96942c0564ce3018,ma_choice_v4_movies_real1,5e3b0c1e96942c0564ce3018,4,romantic,1,Moderate,Good,direction,1793,,,,,2022-06-27 14:14:38,40889
5e3b0c1e96942c0564ce3018,ma_choice_v4_movies_real1,5e3b0c1e96942c0564ce3018,4,romantic,1,Good,Very Good,direction,2233,,,,,2022-06-27 14:14:40,40890
5c36e40e299f82000103ce0a,ma_choice_v4_movies_real1,5c36e40e299f82000103ce0a,5,plot,63,,,wad_att_rating,3343,,,,,2022-06-27 14:14:41,40891
5e3b0c1e96942c0564ce3018,ma_choice_v4_movies_real1,5e3b0c1e96942c0564ce3018,5,funny,1,Very Bad,Very Good,direction,1625,,,,,2022-06-27 14:14:43,40892
5e3b0c1e96942c0564ce3018,ma_choice_v4_movies_real1,5e3b0c1e96942c0564ce3018,5,funny,1,Very Bad,Bad,direction,1571,,,,,2022-06-27 14:14:44,40893
5e3b0c1e96942c0564ce3018,ma_choice_v4_movies_real1,5e3b0c1e96942c0564ce3018,5,funny,1,Bad,Moderate,direction,1415,,,,,2022-06-27 14:14:46,40894
5e3b0c1e96942c0564ce3018,ma_choice_v4_movies_real1,5e3b0c1e96942c0564ce3018,5,funny,1,Moderate,Good,direction,1472,,,,,2022-06-27 14:14:47,40895
5e3b0c1e96942c0564ce3018,ma_choice_v4_movies_real1,5e3b0c1e96942c0564ce3018,5,funny,1,Good,Very Good,direction,1598,,,,,2022-06-27 14:14:49,40896
5e3b0c1e96942c0564ce3018,ma_choice_v4_movies_real1,5e3b0c1e96942c0564ce3018,6,artistic,1,Very Bad,Very Good,direction,2704,,,,,2022-06-27 14:14:52,40897
60737b97d01c3800e734921d,ma_choice_v4_movies_real1,60737b97d01c3800e734921d,2,romantic,12,,,wad_att_rating,8111,,,,,2022-06-27 14:14:53,40898
5e3b0c1e96942c0564ce3018,ma_choice_v4_movies_real1,5e3b0c1e96942c0564ce3018,6,artistic,1,Very Bad,Bad,direction,2632,,,,,2022-06-27 14:14:55,40899
5e3b0c1e96942c0564ce3018,ma_choice_v4_movies_real1,5e3b0c1e96942c0564ce3018,6,artistic,1,Bad,Moderate,direction,1555,,,,,2022-06-27 14:14:56,40900
60737b97d01c3800e734921d,ma_choice_v4_movies_real1,60737b97d01c3800e734921d,7,awesome soundtrack,0,,,wad_att_rating,4646,,,,,2022-06-27 14:14:58,40901
5e3b0c1e96942c0564ce3018,ma_choice_v4_movies_real1,5e3b0c1e96942c0564ce3018,6,artistic,1,Moderate,Good,direction,2281,,,,,2022-06-27 14:14:59,40902
5e3b0c1e96942c0564ce3018,ma_choice_v4_movies_real1,5e3b0c1e96942c0564ce3018,6,artistic,1,Good,Very Good,direction,2856,,,,,2022-06-27 14:15:02,40903
5e3b0c1e96942c0564ce3018,ma_choice_v4_movies_real1,5e3b0c1e96942c0564ce3018,7,visual,1,Very Bad,Very Good,direction,2965,,,,,2022-06-27 14:15:05,40904
60737b97d01c3800e734921d,ma_choice_v4_movies_real1,60737b97d01c3800e734921d,0,artistic,25,,,wad_att_rating,9703,,,,,2022-06-27 14:15:08,40905
5e3b0c1e96942c0564ce3018,ma_choice_v4_movies_real1,5e3b0c1e96942c0564ce3018,7,visual,1,Very Bad,Bad,direction,2774,,,,,2022-06-27 14:15:08,40906
5e3b0c1e96942c0564ce3018,ma_choice_v4_movies_real1,5e3b0c1e96942c0564ce3018,7,visual,1,Bad,Moderate,direction,2553,,,,,2022-06-27 14:15:11,40907
5e3b0c1e96942c0564ce3018,ma_choice_v4_movies_real1,5e3b0c1e96942c0564ce3018,7,visual,1,Moderate,Good,direction,2614,,,,,2022-06-27 14:15:13,40908
5e3b0c1e96942c0564ce3018,ma_choice_v4_movies_real1,5e3b0c1e96942c0564ce3018,7,visual,1,Good,Very Good,direction,1705,,,,,2022-06-27 14:15:15,40909
60737b97d01c3800e734921d,ma_choice_v4_movies_real1,60737b97d01c3800e734921d,5,plot,88,,,wad_att_rating,8375,,,,,2022-06-27 14:15:16,40910
5e3b0c1e96942c0564ce3018,ma_choice_v4_movies_real1,5e3b0c1e96942c0564ce3018,8,awesome soundtrack,1,Very Bad,Very Good,direction,2291,,,,,2022-06-27 14:15:18,40911
5e3b0c1e96942c0564ce3018,ma_choice_v4_movies_real1,5e3b0c1e96942c0564ce3018,8,awesome soundtrack,1,Very Bad,Bad,direction,2385,,,,,2022-06-27 14:15:21,40912
60737b97d01c3800e734921d,ma_choice_v4_movies_real1,60737b97d01c3800e734921d,8,good action,50,,,wad_att_rating,4606,,,,,2022-06-27 14:15:21,40913
5e3b0c1e96942c0564ce3018,ma_choice_v4_movies_real1,5e3b0c1e96942c0564ce3018,8,awesome soundtrack,1,Bad,Moderate,direction,1991,,,,,2022-06-27 14:15:23,40914
5e3b0c1e96942c0564ce3018,ma_choice_v4_movies_real1,5e3b0c1e96942c0564ce3018,8,awesome soundtrack,1,Moderate,Good,direction,2406,,,,,2022-06-27 14:15:25,40915
60737b97d01c3800e734921d,ma_choice_v4_movies_real1,60737b97d01c3800e734921d,4,great acting,88,,,wad_att_rating,4615,,,,,2022-06-27 14:15:25,40916
5e3b0c1e96942c0564ce3018,ma_choice_v4_movies_real1,5e3b0c1e96942c0564ce3018,8,awesome soundtrack,1,Good,Very Good,direction,3525,,,,,2022-06-27 14:15:29,40917
60737b97d01c3800e734921d,ma_choice_v4_movies_real1,60737b97d01c3800e734921d,3,visual,25,,,wad_att_rating,5206,,,,,2022-06-27 14:15:31,40918
60737b97d01c3800e734921d,ma_choice_v4_movies_real1,60737b97d01c3800e734921d,1,funny,50,,,wad_att_rating,3439,,,,,2022-06-27 14:15:34,40919
60737b97d01c3800e734921d,ma_choice_v4_movies_real1,60737b97d01c3800e734921d,6,dialogue,50,,,wad_att_rating,4271,,,,,2022-06-27 14:15:38,40920
60737b97d01c3800e734921d,ma_choice_v4_movies_real1,60737b97d01c3800e734921d,0,Plot,1,,,lex_att_rating,6919,,,,,2022-06-27 14:15:56,40921
60737b97d01c3800e734921d,ma_choice_v4_movies_real1,60737b97d01c3800e734921d,0,Acting,1,,,ew_att_rating,9108,,,,,2022-06-27 14:16:18,40922
60737b97d01c3800e734921d,ma_choice_v4_movies_real1,60737b97d01c3800e734921d,0,Plot,1,,,ew_att_rating,9108,,,,,2022-06-27 14:16:18,40923
5eb7c006b839846ea7a24178,ma_choice_v4_movies_real1,5eb7c006b839846ea7a24178,0,Plot,1,,,lex_att_rating,3122,,,,,2022-06-27 14:17:11,40924
5eb7c006b839846ea7a24178,ma_choice_v4_movies_real1,5eb7c006b839846ea7a24178,0,Acting,1,,,ew_att_rating,5651,,,,,2022-06-27 14:17:22,40925
5eb7c006b839846ea7a24178,ma_choice_v4_movies_real1,5eb7c006b839846ea7a24178,0,Plot,1,,,ew_att_rating,5651,,,,,2022-06-27 14:17:22,40926
5eb7c006b839846ea7a24178,ma_choice_v4_movies_real1,5eb7c006b839846ea7a24178,0,Dialogue,1,,,ew_att_rating,5651,,,,,2022-06-27 14:17:22,40927
60737b97d01c3800e734921d,ma_choice_v4_movies_real1,60737b97d01c3800e734921d,0,visual,1,Very Bad,Very Good,direction,20591,,,,,2022-06-27 14:17:27,40928
5eb7c006b839846ea7a24178,ma_choice_v4_movies_real1,5eb7c006b839846ea7a24178,8,good action,0,,,wad_att_rating,5211,,,,,2022-06-27 14:17:29,40929
5eb7c006b839846ea7a24178,ma_choice_v4_movies_real1,5eb7c006b839846ea7a24178,0,artistic,0,,,wad_att_rating,1776,,,,,2022-06-27 14:17:31,40930
5eb7c006b839846ea7a24178,ma_choice_v4_movies_real1,5eb7c006b839846ea7a24178,5,plot,88,,,wad_att_rating,6471,,,,,2022-06-27 14:17:37,40931
5eb7c006b839846ea7a24178,ma_choice_v4_movies_real1,5eb7c006b839846ea7a24178,6,dialogue,74,,,wad_att_rating,3364,,,,,2022-06-27 14:17:41,40932
60737b97d01c3800e734921d,ma_choice_v4_movies_real1,60737b97d01c3800e734921d,0,visual,1,Very Bad,Bad,direction,14541,,,,,2022-06-27 14:17:41,40933
5eb7c006b839846ea7a24178,ma_choice_v4_movies_real1,5eb7c006b839846ea7a24178,7,awesome soundtrack,0,,,wad_att_rating,1400,,,,,2022-06-27 14:17:42,40934
5eb7c006b839846ea7a24178,ma_choice_v4_movies_real1,5eb7c006b839846ea7a24178,1,funny,0,,,wad_att_rating,919,,,,,2022-06-27 14:17:43,40935
5eb7c006b839846ea7a24178,ma_choice_v4_movies_real1,5eb7c006b839846ea7a24178,4,great acting,88,,,wad_att_rating,3664,,,,,2022-06-27 14:17:47,40936
60737b97d01c3800e734921d,ma_choice_v4_movies_real1,60737b97d01c3800e734921d,0,visual,1,Bad,Moderate,direction,6548,,,,,2022-06-27 14:17:47,40937
5eb7c006b839846ea7a24178,ma_choice_v4_movies_real1,5eb7c006b839846ea7a24178,2,romantic,0,,,wad_att_rating,4287,,,,,2022-06-27 14:17:51,40938
5eb7c006b839846ea7a24178,ma_choice_v4_movies_real1,5eb7c006b839846ea7a24178,3,visual,0,,,wad_att_rating,1124,,,,,2022-06-27 14:17:52,40939
60737b97d01c3800e734921d,ma_choice_v4_movies_real1,60737b97d01c3800e734921d,0,visual,1,Moderate,Good,direction,4861,,,,,2022-06-27 14:17:52,40940
60737b97d01c3800e734921d,ma_choice_v4_movies_real1,60737b97d01c3800e734921d,0,visual,1,Good,Very Good,direction,3700,,,,,2022-06-27 14:17:56,40941
60737b97d01c3800e734921d,ma_choice_v4_movies_real1,60737b97d01c3800e734921d,1,artistic,1,Very Bad,Very Good,direction,4823,,,,,2022-06-27 14:18:02,40942
60737b97d01c3800e734921d,ma_choice_v4_movies_real1,60737b97d01c3800e734921d,1,artistic,1,Very Bad,Bad,direction,4692,,,,,2022-06-27 14:18:07,40943
60737b97d01c3800e734921d,ma_choice_v4_movies_real1,60737b97d01c3800e734921d,1,artistic,1,Bad,Moderate,direction,5564,,,,,2022-06-27 14:18:13,40944
60737b97d01c3800e734921d,ma_choice_v4_movies_real1,60737b97d01c3800e734921d,1,artistic,1,Moderate,Good,direction,2461,,,,,2022-06-27 14:18:15,40945
5eb7c006b839846ea7a24178,ma_choice_v4_movies_real1,5eb7c006b839846ea7a24178,0,good action,1,Very Bad,Very Good,direction,6575,,,,,2022-06-27 14:18:17,40946
60737b97d01c3800e734921d,ma_choice_v4_movies_real1,60737b97d01c3800e734921d,1,artistic,1,Good,Very Good,direction,4668,,,,,2022-06-27 14:18:20,40947
5eb7c006b839846ea7a24178,ma_choice_v4_movies_real1,5eb7c006b839846ea7a24178,0,good action,1,Very Bad,Bad,direction,4617,,,,,2022-06-27 14:18:21,40948
5eb7c006b839846ea7a24178,ma_choice_v4_movies_real1,5eb7c006b839846ea7a24178,0,good action,1,Bad,Moderate,direction,3014,,,,,2022-06-27 14:18:24,40949
60737b97d01c3800e734921d,ma_choice_v4_movies_real1,60737b97d01c3800e734921d,2,awesome soundtrack,1,Very Bad,Very Good,direction,4536,,,,,2022-06-27 14:18:26,40950
60737b97d01c3800e734921d,ma_choice_v4_movies_real1,60737b97d01c3800e734921d,2,awesome soundtrack,1,Very Bad,Bad,direction,2932,,,,,2022-06-27 14:18:28,40951
5eb7c006b839846ea7a24178,ma_choice_v4_movies_real1,5eb7c006b839846ea7a24178,0,good action,1,Moderate,Good,direction,4169,,,,,2022-06-27 14:18:29,40952
60737b97d01c3800e734921d,ma_choice_v4_movies_real1,60737b97d01c3800e734921d,2,awesome soundtrack,1,Bad,Moderate,direction,2308,,,,,2022-06-27 14:18:31,40953
5eb7c006b839846ea7a24178,ma_choice_v4_movies_real1,5eb7c006b839846ea7a24178,0,good action,1,Good,Very Good,direction,2577,,,,,2022-06-27 14:18:31,40954
60737b97d01c3800e734921d,ma_choice_v4_movies_real1,60737b97d01c3800e734921d,2,awesome soundtrack,1,Moderate,Good,direction,2669,,,,,2022-06-27 14:18:33,40955
5eb7c006b839846ea7a24178,ma_choice_v4_movies_real1,5eb7c006b839846ea7a24178,1,artistic,1,Very Bad,Very Good,direction,2091,,,,,2022-06-27 14:18:35,40956
60737b97d01c3800e734921d,ma_choice_v4_movies_real1,60737b97d01c3800e734921d,2,awesome soundtrack,1,Good,Very Good,direction,2212,,,,,2022-06-27 14:18:36,40957
5eb7c006b839846ea7a24178,ma_choice_v4_movies_real1,5eb7c006b839846ea7a24178,1,artistic,1,Very Bad,Bad,direction,2101,,,,,2022-06-27 14:18:37,40958
5eb7c006b839846ea7a24178,ma_choice_v4_movies_real1,5eb7c006b839846ea7a24178,1,artistic,1,Bad,Moderate,direction,1927,,,,,2022-06-27 14:18:39,40959
5eb7c006b839846ea7a24178,ma_choice_v4_movies_real1,5eb7c006b839846ea7a24178,1,artistic,1,Moderate,Good,direction,1929,,,,,2022-06-27 14:18:41,40960
60737b97d01c3800e734921d,ma_choice_v4_movies_real1,60737b97d01c3800e734921d,3,plot,1,Very Bad,Very Good,direction,3943,,,,,2022-06-27 14:18:41,40961
5eb7c006b839846ea7a24178,ma_choice_v4_movies_real1,5eb7c006b839846ea7a24178,1,artistic,1,Good,Very Good,direction,2100,,,,,2022-06-27 14:18:43,40962
60737b97d01c3800e734921d,ma_choice_v4_movies_real1,60737b97d01c3800e734921d,3,plot,1,Very Bad,Bad,direction,2084,,,,,2022-06-27 14:18:43,40963
5eb7c006b839846ea7a24178,ma_choice_v4_movies_real1,5eb7c006b839846ea7a24178,2,great acting,1,Very Bad,Very Good,direction,1720,,,,,2022-06-27 14:18:46,40964
60737b97d01c3800e734921d,ma_choice_v4_movies_real1,60737b97d01c3800e734921d,3,plot,1,Bad,Moderate,direction,3301,,,,,2022-06-27 14:18:47,40965
5eb7c006b839846ea7a24178,ma_choice_v4_movies_real1,5eb7c006b839846ea7a24178,2,great acting,1,Very Bad,Bad,direction,2062,,,,,2022-06-27 14:18:48,40966
60737b97d01c3800e734921d,ma_choice_v4_movies_real1,60737b97d01c3800e734921d,3,plot,1,Moderate,Good,direction,1821,,,,,2022-06-27 14:18:48,40967
5eb7c006b839846ea7a24178,ma_choice_v4_movies_real1,5eb7c006b839846ea7a24178,2,great acting,1,Bad,Moderate,direction,1524,,,,,2022-06-27 14:18:49,40968
60737b97d01c3800e734921d,ma_choice_v4_movies_real1,60737b97d01c3800e734921d,3,plot,1,Good,Very Good,direction,3581,,,,,2022-06-27 14:18:52,40969
