subject,version,assignmentId,trial,attribute,rating,least_preferred,most_preferred,type,rt,rt2,full_or_lex,signed_weights,original_or_followup,stamp,id
616ef9447d637785780d7343,ma_choice_v4_real1,616ef9447d637785780d7343,0,Amount of traffic,1,,,ew_att_rating,7262,,,,,2022-06-16 18:29:16,18536
616ef9447d637785780d7343,ma_choice_v4_real1,616ef9447d637785780d7343,3,Year building was built,0,,,wad_att_rating,4204,,,,,2022-06-16 18:29:23,18537
616ef9447d637785780d7343,ma_choice_v4_real1,616ef9447d637785780d7343,2,Reputation of closest school,0,,,wad_att_rating,3177,,,,,2022-06-16 18:29:27,18538
616ef9447d637785780d7343,ma_choice_v4_real1,616ef9447d637785780d7343,8,Size of home,25,,,wad_att_rating,5748,,,,,2022-06-16 18:29:32,18539
616ef9447d637785780d7343,ma_choice_v4_real1,616ef9447d637785780d7343,0,Closeness to parks,0,,,wad_att_rating,5079,,,,,2022-06-16 18:29:37,18540
616ef9447d637785780d7343,ma_choice_v4_real1,616ef9447d637785780d7343,5,Quality of kitchen,0,,,wad_att_rating,2094,,,,,2022-06-16 18:29:39,18541
616ef9447d637785780d7343,ma_choice_v4_real1,616ef9447d637785780d7343,1,Noise pollution,0,,,wad_att_rating,4813,,,,,2022-06-16 18:29:44,18542
616ef9447d637785780d7343,ma_choice_v4_real1,616ef9447d637785780d7343,4,Size of yard,13,,,wad_att_rating,3782,,,,,2022-06-16 18:29:48,18543
616ef9447d637785780d7343,ma_choice_v4_real1,616ef9447d637785780d7343,7,Amount of traffic,100,,,wad_att_rating,6243,,,,,2022-06-16 18:29:54,18544
616ef9447d637785780d7343,ma_choice_v4_real1,616ef9447d637785780d7343,6,Quality of heat/AC system,0,,,wad_att_rating,2733,,,,,2022-06-16 18:29:57,18545
616ef9447d637785780d7343,ma_choice_v4_real1,616ef9447d637785780d7343,0,Amount of traffic,1,,,lex_att_rating,4222,,,,,2022-06-16 18:30:03,18546
616ef9447d637785780d7343,ma_choice_v4_real1,616ef9447d637785780d7343,5,Quality of kitchen,-1,Moderate,Very Bad,direction,2758,,,,,2022-06-16 18:39:05,18547
616ef9447d637785780d7343,ma_choice_v4_real1,616ef9447d637785780d7343,2,Reputation of closest school,-1,Moderate,Very Bad,direction,3590,,,,,2022-06-16 18:39:12,18548
616ef9447d637785780d7343,ma_choice_v4_real1,616ef9447d637785780d7343,4,Size of yard,-1,300 square feet,0 square feet,direction,1717,,,,,2022-06-16 18:39:19,18549
616ef9447d637785780d7343,ma_choice_v4_real1,616ef9447d637785780d7343,1,Noise pollution,-1,Very Low,Very High,direction,2610,,,,,2022-06-16 18:39:25,18550
616ef9447d637785780d7343,ma_choice_v4_real1,616ef9447d637785780d7343,3,Year building was built,-1,1985,2020,direction,4914,,,,,2022-06-16 18:39:34,18551
616ef9447d637785780d7343,ma_choice_v4_real1,616ef9447d637785780d7343,7,Amount of traffic,-1,Very Little,A Lot,direction,1865,,,,,2022-06-16 18:39:41,18552
616ef9447d637785780d7343,ma_choice_v4_real1,616ef9447d637785780d7343,0,Closeness to parks,-1,10 min away,30 min away,direction,1594,,,,,2022-06-16 18:39:46,18553
616ef9447d637785780d7343,ma_choice_v4_real1,616ef9447d637785780d7343,8,Size of home,-1,1200 square feet,600 square feet,direction,1842,,,,,2022-06-16 18:39:52,18554
616ef9447d637785780d7343,ma_choice_v4_real1,616ef9447d637785780d7343,6,Quality of heat/AC system,-1,Moderate,Very Bad,direction,2475,,,,,2022-06-16 18:39:57,18555
5a198755f2e3460001edc5c9,ma_choice_v4_real1,5a198755f2e3460001edc5c9,0,Amount of traffic,1,,,lex_att_rating,8204,,,,,2022-06-16 18:58:40,18575
5a198755f2e3460001edc5c9,ma_choice_v4_real1,5a198755f2e3460001edc5c9,8,Size of home,24,,,wad_att_rating,5671,,,,,2022-06-16 18:58:49,18576
5a198755f2e3460001edc5c9,ma_choice_v4_real1,5a198755f2e3460001edc5c9,4,Size of yard,75,,,wad_att_rating,3473,,,,,2022-06-16 18:58:52,18577
5a198755f2e3460001edc5c9,ma_choice_v4_real1,5a198755f2e3460001edc5c9,7,Amount of traffic,100,,,wad_att_rating,2696,,,,,2022-06-16 18:58:55,18578
5a198755f2e3460001edc5c9,ma_choice_v4_real1,5a198755f2e3460001edc5c9,1,Noise pollution,75,,,wad_att_rating,5405,,,,,2022-06-16 18:59:01,18579
5a198755f2e3460001edc5c9,ma_choice_v4_real1,5a198755f2e3460001edc5c9,6,Quality of heat/AC system,0,,,wad_att_rating,2290,,,,,2022-06-16 18:59:03,18580
5a198755f2e3460001edc5c9,ma_choice_v4_real1,5a198755f2e3460001edc5c9,2,Reputation of closest school,0,,,wad_att_rating,1970,,,,,2022-06-16 18:59:05,18581
5a198755f2e3460001edc5c9,ma_choice_v4_real1,5a198755f2e3460001edc5c9,0,Closeness to parks,0,,,wad_att_rating,1642,,,,,2022-06-16 18:59:06,18582
5a198755f2e3460001edc5c9,ma_choice_v4_real1,5a198755f2e3460001edc5c9,3,Year building was built,0,,,wad_att_rating,1811,,,,,2022-06-16 18:59:08,18583
5a198755f2e3460001edc5c9,ma_choice_v4_real1,5a198755f2e3460001edc5c9,5,Quality of kitchen,0,,,wad_att_rating,1970,,,,,2022-06-16 18:59:10,18584
5a198755f2e3460001edc5c9,ma_choice_v4_real1,5a198755f2e3460001edc5c9,0,Amount of traffic,1,,,ew_att_rating,9577,,,,,2022-06-16 18:59:28,18585
60fd0c0177cf82998b783603,ma_choice_v4_real1,60fd0c0177cf82998b783603,0,Quality of kitchen,1,,,lex_att_rating,6299,,,,,2022-06-16 19:02:44,18586
60fd0c0177cf82998b783603,ma_choice_v4_real1,60fd0c0177cf82998b783603,0,Noise pollution,1,,,ew_att_rating,13577,,,,,2022-06-16 19:03:11,18587
60fd0c0177cf82998b783603,ma_choice_v4_real1,60fd0c0177cf82998b783603,0,Quality of kitchen,1,,,ew_att_rating,13577,,,,,2022-06-16 19:03:11,18588
60fd0c0177cf82998b783603,ma_choice_v4_real1,60fd0c0177cf82998b783603,0,Size of yard,1,,,ew_att_rating,13577,,,,,2022-06-16 19:03:11,18589
60fd0c0177cf82998b783603,ma_choice_v4_real1,60fd0c0177cf82998b783603,0,Amount of traffic,1,,,ew_att_rating,13577,,,,,2022-06-16 19:03:11,18590
5a198755f2e3460001edc5c9,ma_choice_v4_real1,5a198755f2e3460001edc5c9,0,Closeness to parks,-1,15 min away,30 min away,direction,2699,,,,,2022-06-16 19:03:49,18591
5a198755f2e3460001edc5c9,ma_choice_v4_real1,5a198755f2e3460001edc5c9,7,Amount of traffic,-1,Very Little,A Lot,direction,1869,,,,,2022-06-16 19:03:53,18592
5a198755f2e3460001edc5c9,ma_choice_v4_real1,5a198755f2e3460001edc5c9,4,Size of yard,-1,600 square feet,0 square feet,direction,2604,,,,,2022-06-16 19:03:59,18593
60fd0c0177cf82998b783603,ma_choice_v4_real1,60fd0c0177cf82998b783603,8,Size of home,25,,,wad_att_rating,39341,,,,,2022-06-16 19:04:03,18594
5a198755f2e3460001edc5c9,ma_choice_v4_real1,5a198755f2e3460001edc5c9,5,Quality of kitchen,-1,Very Good,Very Bad,direction,1454,,,,,2022-06-16 19:04:04,18595
5a198755f2e3460001edc5c9,ma_choice_v4_real1,5a198755f2e3460001edc5c9,8,Size of home,-1,600 square feet,1800 square feet,direction,2420,,,,,2022-06-16 19:04:10,18596
60fd0c0177cf82998b783603,ma_choice_v4_real1,60fd0c0177cf82998b783603,4,Size of yard,87,,,wad_att_rating,8221,,,,,2022-06-16 19:04:12,18597
5a198755f2e3460001edc5c9,ma_choice_v4_real1,5a198755f2e3460001edc5c9,2,Reputation of closest school,-1,Very Good,Very Bad,direction,1526,,,,,2022-06-16 19:04:15,18598
5a198755f2e3460001edc5c9,ma_choice_v4_real1,5a198755f2e3460001edc5c9,6,Quality of heat/AC system,-1,Very Good,Very Bad,direction,1629,,,,,2022-06-16 19:04:19,18599
60fd0c0177cf82998b783603,ma_choice_v4_real1,60fd0c0177cf82998b783603,3,Year building was built,0,,,wad_att_rating,7929,,,,,2022-06-16 19:04:20,18600
5a198755f2e3460001edc5c9,ma_choice_v4_real1,5a198755f2e3460001edc5c9,1,Noise pollution,-1,Very Low,Very High,direction,1989,,,,,2022-06-16 19:04:24,18601
60fd0c0177cf82998b783603,ma_choice_v4_real1,60fd0c0177cf82998b783603,6,Quality of heat/AC system,11,,,wad_att_rating,5555,,,,,2022-06-16 19:04:25,18602
60fd0c0177cf82998b783603,ma_choice_v4_real1,60fd0c0177cf82998b783603,5,Quality of kitchen,100,,,wad_att_rating,5679,,,,,2022-06-16 19:04:31,18603
5a198755f2e3460001edc5c9,ma_choice_v4_real1,5a198755f2e3460001edc5c9,3,Year building was built,-1,2020,1950,direction,1973,,,,,2022-06-16 19:04:31,18604
60fd0c0177cf82998b783603,ma_choice_v4_real1,60fd0c0177cf82998b783603,1,Noise pollution,73,,,wad_att_rating,7853,,,,,2022-06-16 19:04:39,18605
60fd0c0177cf82998b783603,ma_choice_v4_real1,60fd0c0177cf82998b783603,0,Closeness to parks,12,,,wad_att_rating,6118,,,,,2022-06-16 19:04:45,18606
60fd0c0177cf82998b783603,ma_choice_v4_real1,60fd0c0177cf82998b783603,2,Reputation of closest school,0,,,wad_att_rating,4657,,,,,2022-06-16 19:04:50,18607
60fd0c0177cf82998b783603,ma_choice_v4_real1,60fd0c0177cf82998b783603,7,Amount of traffic,49,,,wad_att_rating,5176,,,,,2022-06-16 19:04:55,18608
60fd0c0177cf82998b783603,ma_choice_v4_real1,60fd0c0177cf82998b783603,7,Amount of traffic,-1,Very Little,A Lot,direction,4172,,,,,2022-06-16 19:13:28,18609
60fd0c0177cf82998b783603,ma_choice_v4_real1,60fd0c0177cf82998b783603,5,Quality of kitchen,-1,Very Good,Very Bad,direction,2931,,,,,2022-06-16 19:13:37,18610
60fd0c0177cf82998b783603,ma_choice_v4_real1,60fd0c0177cf82998b783603,3,Year building was built,-1,1950,2020,direction,4291,,,,,2022-06-16 19:13:56,18611
60fd0c0177cf82998b783603,ma_choice_v4_real1,60fd0c0177cf82998b783603,0,Closeness to parks,-1,15 min away,30 min away,direction,5599,,,,,2022-06-16 19:14:13,18612
60fd0c0177cf82998b783603,ma_choice_v4_real1,60fd0c0177cf82998b783603,2,Reputation of closest school,-1,Very Good,Very Bad,direction,2843,,,,,2022-06-16 19:14:29,18613
60fd0c0177cf82998b783603,ma_choice_v4_real1,60fd0c0177cf82998b783603,1,Noise pollution,-1,Very Low,Very High,direction,3173,,,,,2022-06-16 19:14:36,18614
60fd0c0177cf82998b783603,ma_choice_v4_real1,60fd0c0177cf82998b783603,4,Size of yard,-1,600 square feet,0 square feet,direction,3018,,,,,2022-06-16 19:14:44,18615
60fd0c0177cf82998b783603,ma_choice_v4_real1,60fd0c0177cf82998b783603,6,Quality of heat/AC system,-1,Very Good,Very Bad,direction,3198,,,,,2022-06-16 19:14:51,18616
60fd0c0177cf82998b783603,ma_choice_v4_real1,60fd0c0177cf82998b783603,8,Size of home,-1,1800 square feet,600 square feet,direction,3166,,,,,2022-06-16 19:15:02,18617
615366914bfb3d9509710cba,ma_choice_v4_real1,615366914bfb3d9509710cba,5,Quality of kitchen,62,,,wad_att_rating,5454,,,,,2022-06-16 19:43:23,18618
615366914bfb3d9509710cba,ma_choice_v4_real1,615366914bfb3d9509710cba,0,Closeness to parks,0,,,wad_att_rating,10474,,,,,2022-06-16 19:43:33,18619
615366914bfb3d9509710cba,ma_choice_v4_real1,615366914bfb3d9509710cba,1,Noise pollution,0,,,wad_att_rating,4356,,,,,2022-06-16 19:43:37,18620
615366914bfb3d9509710cba,ma_choice_v4_real1,615366914bfb3d9509710cba,3,Year building was built,8,,,wad_att_rating,3214,,,,,2022-06-16 19:43:41,18621
615366914bfb3d9509710cba,ma_choice_v4_real1,615366914bfb3d9509710cba,2,Reputation of closest school,0,,,wad_att_rating,2470,,,,,2022-06-16 19:43:43,18622
615366914bfb3d9509710cba,ma_choice_v4_real1,615366914bfb3d9509710cba,4,Size of yard,0,,,wad_att_rating,3134,,,,,2022-06-16 19:43:46,18623
615366914bfb3d9509710cba,ma_choice_v4_real1,615366914bfb3d9509710cba,8,Size of home,49,,,wad_att_rating,3374,,,,,2022-06-16 19:43:50,18624
615366914bfb3d9509710cba,ma_choice_v4_real1,615366914bfb3d9509710cba,6,Quality of heat/AC system,100,,,wad_att_rating,4132,,,,,2022-06-16 19:43:54,18625
615366914bfb3d9509710cba,ma_choice_v4_real1,615366914bfb3d9509710cba,7,Amount of traffic,0,,,wad_att_rating,2374,,,,,2022-06-16 19:43:56,18626
615366914bfb3d9509710cba,ma_choice_v4_real1,615366914bfb3d9509710cba,0,Quality of kitchen,1,,,ew_att_rating,10547,,,,,2022-06-16 19:44:14,18627
615366914bfb3d9509710cba,ma_choice_v4_real1,615366914bfb3d9509710cba,0,Size of home,1,,,ew_att_rating,10547,,,,,2022-06-16 19:44:14,18628
615366914bfb3d9509710cba,ma_choice_v4_real1,615366914bfb3d9509710cba,0,Quality of heat/AC system,1,,,ew_att_rating,10547,,,,,2022-06-16 19:44:14,18629
615366914bfb3d9509710cba,ma_choice_v4_real1,615366914bfb3d9509710cba,0,Quality of heat/AC system,1,,,lex_att_rating,3277,,,,,2022-06-16 19:44:23,18630
615366914bfb3d9509710cba,ma_choice_v4_real1,615366914bfb3d9509710cba,7,Amount of traffic,-1,Very Little,A Lot,direction,2074,,,,,2022-06-16 19:49:35,18631
615366914bfb3d9509710cba,ma_choice_v4_real1,615366914bfb3d9509710cba,2,Reputation of closest school,-1,Very Good,Very Bad,direction,1768,,,,,2022-06-16 19:49:42,18632
615366914bfb3d9509710cba,ma_choice_v4_real1,615366914bfb3d9509710cba,6,Quality of heat/AC system,-1,Very Good,Very Bad,direction,2893,,,,,2022-06-16 19:49:48,18633
615366914bfb3d9509710cba,ma_choice_v4_real1,615366914bfb3d9509710cba,4,Size of yard,-1,600 square feet,0 square feet,direction,1496,,,,,2022-06-16 19:49:54,18634
615366914bfb3d9509710cba,ma_choice_v4_real1,615366914bfb3d9509710cba,1,Noise pollution,-1,Very Low,Very High,direction,1558,,,,,2022-06-16 19:50:00,18635
615366914bfb3d9509710cba,ma_choice_v4_real1,615366914bfb3d9509710cba,0,Closeness to parks,-1,10 min away,30 min away,direction,1559,,,,,2022-06-16 19:50:06,18636
615366914bfb3d9509710cba,ma_choice_v4_real1,615366914bfb3d9509710cba,8,Size of home,-1,1800 square feet,600 square feet,direction,1829,,,,,2022-06-16 19:50:12,18637
615366914bfb3d9509710cba,ma_choice_v4_real1,615366914bfb3d9509710cba,3,Year building was built,-1,2020,1950,direction,1271,,,,,2022-06-16 19:50:16,18638
615366914bfb3d9509710cba,ma_choice_v4_real1,615366914bfb3d9509710cba,5,Quality of kitchen,-1,Very Good,Very Bad,direction,1133,,,,,2022-06-16 19:50:19,18639
6119bdc932d9ebe82ea581e1,ma_choice_v4_real1,6119bdc932d9ebe82ea581e1,0,Quality of kitchen,1,,,ew_att_rating,29203,,,,,2022-06-16 19:50:55,18640
6119bdc932d9ebe82ea581e1,ma_choice_v4_real1,6119bdc932d9ebe82ea581e1,0,Amount of traffic,1,,,ew_att_rating,29203,,,,,2022-06-16 19:50:55,18641
6119bdc932d9ebe82ea581e1,ma_choice_v4_real1,6119bdc932d9ebe82ea581e1,0,Noise pollution,1,,,ew_att_rating,29203,,,,,2022-06-16 19:50:55,18642
6119bdc932d9ebe82ea581e1,ma_choice_v4_real1,6119bdc932d9ebe82ea581e1,0,Quality of kitchen,1,,,lex_att_rating,15390,,,,,2022-06-16 19:51:23,18643
6119bdc932d9ebe82ea581e1,ma_choice_v4_real1,6119bdc932d9ebe82ea581e1,4,Size of yard,37,,,wad_att_rating,10085,,,,,2022-06-16 19:51:41,18644
6119bdc932d9ebe82ea581e1,ma_choice_v4_real1,6119bdc932d9ebe82ea581e1,3,Year building was built,11,,,wad_att_rating,9525,,,,,2022-06-16 19:51:51,18645
6119bdc932d9ebe82ea581e1,ma_choice_v4_real1,6119bdc932d9ebe82ea581e1,7,Amount of traffic,74,,,wad_att_rating,6509,,,,,2022-06-16 19:51:58,18646
6119bdc932d9ebe82ea581e1,ma_choice_v4_real1,6119bdc932d9ebe82ea581e1,5,Quality of kitchen,74,,,wad_att_rating,6141,,,,,2022-06-16 19:52:04,18647
6119bdc932d9ebe82ea581e1,ma_choice_v4_real1,6119bdc932d9ebe82ea581e1,0,Closeness to parks,5,,,wad_att_rating,5093,,,,,2022-06-16 19:52:09,18648
6119bdc932d9ebe82ea581e1,ma_choice_v4_real1,6119bdc932d9ebe82ea581e1,2,Reputation of closest school,0,,,wad_att_rating,4189,,,,,2022-06-16 19:52:13,18649
6119bdc932d9ebe82ea581e1,ma_choice_v4_real1,6119bdc932d9ebe82ea581e1,6,Quality of heat/AC system,62,,,wad_att_rating,4124,,,,,2022-06-16 19:52:17,18650
6119bdc932d9ebe82ea581e1,ma_choice_v4_real1,6119bdc932d9ebe82ea581e1,1,Noise pollution,75,,,wad_att_rating,4173,,,,,2022-06-16 19:52:21,18651
6119bdc932d9ebe82ea581e1,ma_choice_v4_real1,6119bdc932d9ebe82ea581e1,8,Size of home,37,,,wad_att_rating,7421,,,,,2022-06-16 19:52:29,18652
6119bdc932d9ebe82ea581e1,ma_choice_v4_real1,6119bdc932d9ebe82ea581e1,7,Amount of traffic,-1,Very Little,A Lot,direction,3439,,,,,2022-06-16 19:53:39,18653
6119bdc932d9ebe82ea581e1,ma_choice_v4_real1,6119bdc932d9ebe82ea581e1,8,Size of home,-1,600 square feet,1800 square feet,direction,4446,,,,,2022-06-16 19:53:50,18654
6119bdc932d9ebe82ea581e1,ma_choice_v4_real1,6119bdc932d9ebe82ea581e1,2,Reputation of closest school,-1,Very Good,Very Bad,direction,1486,,,,,2022-06-16 19:54:05,18655
6119bdc932d9ebe82ea581e1,ma_choice_v4_real1,6119bdc932d9ebe82ea581e1,5,Quality of kitchen,-1,Very Good,Very Bad,direction,3158,,,,,2022-06-16 19:54:11,18656
6119bdc932d9ebe82ea581e1,ma_choice_v4_real1,6119bdc932d9ebe82ea581e1,1,Noise pollution,-1,Very Low,Very High,direction,1974,,,,,2022-06-16 19:54:17,18657
6119bdc932d9ebe82ea581e1,ma_choice_v4_real1,6119bdc932d9ebe82ea581e1,4,Size of yard,-1,300 square feet,600 square feet,direction,2006,,,,,2022-06-16 19:54:37,18658
6119bdc932d9ebe82ea581e1,ma_choice_v4_real1,6119bdc932d9ebe82ea581e1,6,Quality of heat/AC system,-1,Very Good,Very Bad,direction,2902,,,,,2022-06-16 19:54:52,18659
6119bdc932d9ebe82ea581e1,ma_choice_v4_real1,6119bdc932d9ebe82ea581e1,3,Year building was built,-1,2020,1950,direction,2542,,,,,2022-06-16 19:55:05,18660
6119bdc932d9ebe82ea581e1,ma_choice_v4_real1,6119bdc932d9ebe82ea581e1,0,Closeness to parks,-1,10 min away,30 min away,direction,2902,,,,,2022-06-16 19:55:14,18661
5bad4be8b712f30001b87947,ma_choice_v4_real1,5bad4be8b712f30001b87947,7,Amount of traffic,0,,,wad_att_rating,5039,,,,,2022-06-16 19:57:05,18662
5bad4be8b712f30001b87947,ma_choice_v4_real1,5bad4be8b712f30001b87947,5,Quality of kitchen,50,,,wad_att_rating,7246,,,,,2022-06-16 19:57:12,18663
5bad4be8b712f30001b87947,ma_choice_v4_real1,5bad4be8b712f30001b87947,8,Size of home,25,,,wad_att_rating,7286,,,,,2022-06-16 19:57:19,18664
5bad4be8b712f30001b87947,ma_choice_v4_real1,5bad4be8b712f30001b87947,1,Noise pollution,0,,,wad_att_rating,10342,,,,,2022-06-16 19:57:30,18665
60ff1675f00a765cb05017e8,ma_choice_v4_real1,60ff1675f00a765cb05017e8,0,Quality of heat/AC system,1,,,ew_att_rating,28434,,,,,2022-06-16 19:57:31,18666
60ff1675f00a765cb05017e8,ma_choice_v4_real1,60ff1675f00a765cb05017e8,0,Reputation of closest school,1,,,ew_att_rating,28434,,,,,2022-06-16 19:57:31,18667
60ff1675f00a765cb05017e8,ma_choice_v4_real1,60ff1675f00a765cb05017e8,0,Quality of kitchen,1,,,ew_att_rating,28434,,,,,2022-06-16 19:57:31,18668
5bad4be8b712f30001b87947,ma_choice_v4_real1,5bad4be8b712f30001b87947,4,Size of yard,0,,,wad_att_rating,5702,,,,,2022-06-16 19:57:36,18669
60ff1675f00a765cb05017e8,ma_choice_v4_real1,60ff1675f00a765cb05017e8,8,Size of home,0,,,wad_att_rating,5604,,,,,2022-06-16 19:57:46,18670
5bad4be8b712f30001b87947,ma_choice_v4_real1,5bad4be8b712f30001b87947,2,Reputation of closest school,0,,,wad_att_rating,14126,,,,,2022-06-16 19:57:50,18671
60ff1675f00a765cb05017e8,ma_choice_v4_real1,60ff1675f00a765cb05017e8,5,Quality of kitchen,100,,,wad_att_rating,4063,,,,,2022-06-16 19:57:50,18672
5bad4be8b712f30001b87947,ma_choice_v4_real1,5bad4be8b712f30001b87947,6,Quality of heat/AC system,100,,,wad_att_rating,3726,,,,,2022-06-16 19:57:53,18673
60ff1675f00a765cb05017e8,ma_choice_v4_real1,60ff1675f00a765cb05017e8,7,Amount of traffic,0,,,wad_att_rating,3661,,,,,2022-06-16 19:57:54,18674
5bad4be8b712f30001b87947,ma_choice_v4_real1,5bad4be8b712f30001b87947,3,Year building was built,62,,,wad_att_rating,4495,,,,,2022-06-16 19:57:58,18675
60ff1675f00a765cb05017e8,ma_choice_v4_real1,60ff1675f00a765cb05017e8,2,Reputation of closest school,100,,,wad_att_rating,5007,,,,,2022-06-16 19:57:59,18676
5bad4be8b712f30001b87947,ma_choice_v4_real1,5bad4be8b712f30001b87947,0,Closeness to parks,0,,,wad_att_rating,3127,,,,,2022-06-16 19:58:01,18677
60ff1675f00a765cb05017e8,ma_choice_v4_real1,60ff1675f00a765cb05017e8,1,Noise pollution,0,,,wad_att_rating,2773,,,,,2022-06-16 19:58:01,18678
60ff1675f00a765cb05017e8,ma_choice_v4_real1,60ff1675f00a765cb05017e8,0,Closeness to parks,0,,,wad_att_rating,3140,,,,,2022-06-16 19:58:05,18679
60ff1675f00a765cb05017e8,ma_choice_v4_real1,60ff1675f00a765cb05017e8,4,Size of yard,0,,,wad_att_rating,2552,,,,,2022-06-16 19:58:07,18680
60ff1675f00a765cb05017e8,ma_choice_v4_real1,60ff1675f00a765cb05017e8,3,Year building was built,0,,,wad_att_rating,2364,,,,,2022-06-16 19:58:09,18681
60ff1675f00a765cb05017e8,ma_choice_v4_real1,60ff1675f00a765cb05017e8,6,Quality of heat/AC system,100,,,wad_att_rating,3365,,,,,2022-06-16 19:58:13,18682
5bad4be8b712f30001b87947,ma_choice_v4_real1,5bad4be8b712f30001b87947,0,Quality of heat/AC system,1,,,ew_att_rating,14132,,,,,2022-06-16 19:58:34,18683
5bad4be8b712f30001b87947,ma_choice_v4_real1,5bad4be8b712f30001b87947,0,Quality of kitchen,1,,,ew_att_rating,14132,,,,,2022-06-16 19:58:34,18684
60ff1675f00a765cb05017e8,ma_choice_v4_real1,60ff1675f00a765cb05017e8,0,Quality of kitchen,1,,,lex_att_rating,11320,,,,,2022-06-16 19:58:38,18685
5bad4be8b712f30001b87947,ma_choice_v4_real1,5bad4be8b712f30001b87947,0,Quality of heat/AC system,1,,,lex_att_rating,5223,,,,,2022-06-16 19:58:48,18686
5bad4be8b712f30001b87947,ma_choice_v4_real1,5bad4be8b712f30001b87947,0,Closeness to parks,-1,10 min away,20 min away,direction,5382,,,,,2022-06-16 20:00:17,18687
60ff1675f00a765cb05017e8,ma_choice_v4_real1,60ff1675f00a765cb05017e8,6,Quality of heat/AC system,-1,Very Good,Very Bad,direction,3373,,,,,2022-06-16 20:00:17,18688
60ff1675f00a765cb05017e8,ma_choice_v4_real1,60ff1675f00a765cb05017e8,8,Size of home,-1,1800 square feet,600 square feet,direction,2378,,,,,2022-06-16 20:00:27,18689
5bad4be8b712f30001b87947,ma_choice_v4_real1,5bad4be8b712f30001b87947,1,Noise pollution,-1,Very Low,High,direction,5567,,,,,2022-06-16 20:00:28,18690
60ff1675f00a765cb05017e8,ma_choice_v4_real1,60ff1675f00a765cb05017e8,1,Noise pollution,-1,Moderate,High,direction,2724,,,,,2022-06-16 20:00:34,18691
5bad4be8b712f30001b87947,ma_choice_v4_real1,5bad4be8b712f30001b87947,3,Year building was built,-1,2020,1950,direction,4207,,,,,2022-06-16 20:00:36,18692
60ff1675f00a765cb05017e8,ma_choice_v4_real1,60ff1675f00a765cb05017e8,3,Year building was built,-1,1985,1950,direction,1906,,,,,2022-06-16 20:00:44,18693
5bad4be8b712f30001b87947,ma_choice_v4_real1,5bad4be8b712f30001b87947,7,Amount of traffic,-1,Very Little,A Moderate Amount,direction,3663,,,,,2022-06-16 20:00:46,18694
60ff1675f00a765cb05017e8,ma_choice_v4_real1,60ff1675f00a765cb05017e8,4,Size of yard,-1,300 square feet,0 square feet,direction,1804,,,,,2022-06-16 20:00:51,18695
5bad4be8b712f30001b87947,ma_choice_v4_real1,5bad4be8b712f30001b87947,4,Size of yard,-1,600 square feet,0 square feet,direction,3743,,,,,2022-06-16 20:00:56,18696
60ff1675f00a765cb05017e8,ma_choice_v4_real1,60ff1675f00a765cb05017e8,0,Closeness to parks,-1,20 min away,30 min away,direction,2562,,,,,2022-06-16 20:00:58,18697
60ff1675f00a765cb05017e8,ma_choice_v4_real1,60ff1675f00a765cb05017e8,2,Reputation of closest school,-1,Very Good,Very Bad,direction,1577,,,,,2022-06-16 20:01:05,18698
5bad4be8b712f30001b87947,ma_choice_v4_real1,5bad4be8b712f30001b87947,2,Reputation of closest school,-1,Very Good,Bad,direction,5343,,,,,2022-06-16 20:01:08,18699
60ff1675f00a765cb05017e8,ma_choice_v4_real1,60ff1675f00a765cb05017e8,5,Quality of kitchen,-1,Very Good,Very Bad,direction,2180,,,,,2022-06-16 20:01:13,18700
5bad4be8b712f30001b87947,ma_choice_v4_real1,5bad4be8b712f30001b87947,8,Size of home,-1,1800 square feet,600 square feet,direction,2575,,,,,2022-06-16 20:01:15,18701
60ff1675f00a765cb05017e8,ma_choice_v4_real1,60ff1675f00a765cb05017e8,7,Amount of traffic,-1,A Moderate Amount,A Lot,direction,2831,,,,,2022-06-16 20:01:19,18702
5bad4be8b712f30001b87947,ma_choice_v4_real1,5bad4be8b712f30001b87947,5,Quality of kitchen,-1,Very Good,Moderate,direction,4407,,,,,2022-06-16 20:01:23,18703
5bad4be8b712f30001b87947,ma_choice_v4_real1,5bad4be8b712f30001b87947,6,Quality of heat/AC system,-1,Very Good,Bad,direction,2879,,,,,2022-06-16 20:01:30,18704
5da4152a3ab39a0011295a3e,ma_choice_v4_real1,5da4152a3ab39a0011295a3e,0,Year building was built,1,,,lex_att_rating,10446,,,,,2022-06-16 20:04:00,18705
5da4152a3ab39a0011295a3e,ma_choice_v4_real1,5da4152a3ab39a0011295a3e,6,Quality of heat/AC system,12,,,wad_att_rating,5487,,,,,2022-06-16 20:04:11,18706
5da4152a3ab39a0011295a3e,ma_choice_v4_real1,5da4152a3ab39a0011295a3e,4,Size of yard,12,,,wad_att_rating,4100,,,,,2022-06-16 20:04:15,18707
5da4152a3ab39a0011295a3e,ma_choice_v4_real1,5da4152a3ab39a0011295a3e,3,Year building was built,90,,,wad_att_rating,13176,,,,,2022-06-16 20:04:28,18708
5da4152a3ab39a0011295a3e,ma_choice_v4_real1,5da4152a3ab39a0011295a3e,5,Quality of kitchen,12,,,wad_att_rating,3706,,,,,2022-06-16 20:04:32,18709
5da4152a3ab39a0011295a3e,ma_choice_v4_real1,5da4152a3ab39a0011295a3e,0,Closeness to parks,0,,,wad_att_rating,4286,,,,,2022-06-16 20:04:36,18710
5da4152a3ab39a0011295a3e,ma_choice_v4_real1,5da4152a3ab39a0011295a3e,8,Size of home,93,,,wad_att_rating,4244,,,,,2022-06-16 20:04:41,18711
5da4152a3ab39a0011295a3e,ma_choice_v4_real1,5da4152a3ab39a0011295a3e,1,Noise pollution,51,,,wad_att_rating,5862,,,,,2022-06-16 20:04:47,18712
5da4152a3ab39a0011295a3e,ma_choice_v4_real1,5da4152a3ab39a0011295a3e,2,Reputation of closest school,0,,,wad_att_rating,3746,,,,,2022-06-16 20:04:50,18713
5da4152a3ab39a0011295a3e,ma_choice_v4_real1,5da4152a3ab39a0011295a3e,7,Amount of traffic,42,,,wad_att_rating,3812,,,,,2022-06-16 20:04:54,18714
5da4152a3ab39a0011295a3e,ma_choice_v4_real1,5da4152a3ab39a0011295a3e,0,Size of home,1,,,ew_att_rating,17575,,,,,2022-06-16 20:05:20,18725
5da4152a3ab39a0011295a3e,ma_choice_v4_real1,5da4152a3ab39a0011295a3e,0,Year building was built,1,,,ew_att_rating,17575,,,,,2022-06-16 20:05:20,18726
5da4152a3ab39a0011295a3e,ma_choice_v4_real1,5da4152a3ab39a0011295a3e,0,Noise pollution,1,,,ew_att_rating,17575,,,,,2022-06-16 20:05:20,18727
5da4152a3ab39a0011295a3e,ma_choice_v4_real1,5da4152a3ab39a0011295a3e,0,Amount of traffic,1,,,ew_att_rating,17575,,,,,2022-06-16 20:05:20,18728
5da4152a3ab39a0011295a3e,ma_choice_v4_real1,5da4152a3ab39a0011295a3e,4,Size of yard,-1,300 square feet,0 square feet,direction,4844,,,,,2022-06-16 20:14:14,18757
5da4152a3ab39a0011295a3e,ma_choice_v4_real1,5da4152a3ab39a0011295a3e,7,Amount of traffic,-1,Very Little,A Lot,direction,4994,,,,,2022-06-16 20:14:26,18758
5da4152a3ab39a0011295a3e,ma_choice_v4_real1,5da4152a3ab39a0011295a3e,5,Quality of kitchen,-1,Very Good,Very Bad,direction,4394,,,,,2022-06-16 20:14:38,18759
5da4152a3ab39a0011295a3e,ma_choice_v4_real1,5da4152a3ab39a0011295a3e,3,Year building was built,-1,2020,1950,direction,2800,,,,,2022-06-16 20:14:48,18760
5da4152a3ab39a0011295a3e,ma_choice_v4_real1,5da4152a3ab39a0011295a3e,0,Closeness to parks,-1,15 min away,25 min away,direction,2616,,,,,2022-06-16 20:15:00,18761
5da4152a3ab39a0011295a3e,ma_choice_v4_real1,5da4152a3ab39a0011295a3e,8,Size of home,-1,1200 square feet,600 square feet,direction,3450,,,,,2022-06-16 20:15:09,18762
5da4152a3ab39a0011295a3e,ma_choice_v4_real1,5da4152a3ab39a0011295a3e,6,Quality of heat/AC system,-1,Good,Very Bad,direction,3546,,,,,2022-06-16 20:15:18,18763
5da4152a3ab39a0011295a3e,ma_choice_v4_real1,5da4152a3ab39a0011295a3e,1,Noise pollution,-1,Very Low,Very High,direction,3344,,,,,2022-06-16 20:15:25,18764
5da4152a3ab39a0011295a3e,ma_choice_v4_real1,5da4152a3ab39a0011295a3e,2,Reputation of closest school,-1,Very Good,Very Bad,direction,2712,,,,,2022-06-16 20:15:33,18765
6282575ebe32fdc6268babc8,ma_choice_v4_real1,6282575ebe32fdc6268babc8,0,Quality of heat/AC system,1,,,lex_att_rating,3215,,,,,2022-06-16 20:19:42,18766
5e28c4b59f0de509e0322c85,ma_choice_v4_real1,5e28c4b59f0de509e0322c85,0,Quality of heat/AC system,1,,,ew_att_rating,12453,,,,,2022-06-16 20:19:54,18767
5e28c4b59f0de509e0322c85,ma_choice_v4_real1,5e28c4b59f0de509e0322c85,0,Size of home,1,,,ew_att_rating,12453,,,,,2022-06-16 20:19:54,18768
5e28c4b59f0de509e0322c85,ma_choice_v4_real1,5e28c4b59f0de509e0322c85,0,Year building was built,1,,,ew_att_rating,12453,,,,,2022-06-16 20:19:54,18769
6282575ebe32fdc6268babc8,ma_choice_v4_real1,6282575ebe32fdc6268babc8,7,Amount of traffic,0,,,wad_att_rating,11382,,,,,2022-06-16 20:19:57,18770
5e28c4b59f0de509e0322c85,ma_choice_v4_real1,5e28c4b59f0de509e0322c85,0,Quality of heat/AC system,1,,,lex_att_rating,5815,,,,,2022-06-16 20:20:07,18771
5e28c4b59f0de509e0322c85,ma_choice_v4_real1,5e28c4b59f0de509e0322c85,8,Size of home,82,,,wad_att_rating,4742,,,,,2022-06-16 20:20:18,18772
5e28c4b59f0de509e0322c85,ma_choice_v4_real1,5e28c4b59f0de509e0322c85,7,Amount of traffic,26,,,wad_att_rating,3777,,,,,2022-06-16 20:20:22,18773
5e28c4b59f0de509e0322c85,ma_choice_v4_real1,5e28c4b59f0de509e0322c85,1,Noise pollution,18,,,wad_att_rating,2460,,,,,2022-06-16 20:20:24,18774
5e28c4b59f0de509e0322c85,ma_choice_v4_real1,5e28c4b59f0de509e0322c85,5,Quality of kitchen,74,,,wad_att_rating,4081,,,,,2022-06-16 20:20:28,18775
6282575ebe32fdc6268babc8,ma_choice_v4_real1,6282575ebe32fdc6268babc8,8,Size of home,48,,,wad_att_rating,35305,,,,,2022-06-16 20:20:32,18776
5e28c4b59f0de509e0322c85,ma_choice_v4_real1,5e28c4b59f0de509e0322c85,3,Year building was built,87,,,wad_att_rating,4390,,,,,2022-06-16 20:20:33,18777
6282575ebe32fdc6268babc8,ma_choice_v4_real1,6282575ebe32fdc6268babc8,1,Noise pollution,0,,,wad_att_rating,3553,,,,,2022-06-16 20:20:36,18778
5e28c4b59f0de509e0322c85,ma_choice_v4_real1,5e28c4b59f0de509e0322c85,2,Reputation of closest school,34,,,wad_att_rating,3501,,,,,2022-06-16 20:20:36,18779
5e28c4b59f0de509e0322c85,ma_choice_v4_real1,5e28c4b59f0de509e0322c85,6,Quality of heat/AC system,100,,,wad_att_rating,3048,,,,,2022-06-16 20:20:39,18780
6282575ebe32fdc6268babc8,ma_choice_v4_real1,6282575ebe32fdc6268babc8,4,Size of yard,24,,,wad_att_rating,4226,,,,,2022-06-16 20:20:40,18781
5e28c4b59f0de509e0322c85,ma_choice_v4_real1,5e28c4b59f0de509e0322c85,0,Closeness to parks,9,,,wad_att_rating,3620,,,,,2022-06-16 20:20:43,18782
6282575ebe32fdc6268babc8,ma_choice_v4_real1,6282575ebe32fdc6268babc8,5,Quality of kitchen,87,,,wad_att_rating,4498,,,,,2022-06-16 20:20:44,18783
5e28c4b59f0de509e0322c85,ma_choice_v4_real1,5e28c4b59f0de509e0322c85,4,Size of yard,29,,,wad_att_rating,3080,,,,,2022-06-16 20:20:46,18784
6282575ebe32fdc6268babc8,ma_choice_v4_real1,6282575ebe32fdc6268babc8,2,Reputation of closest school,0,,,wad_att_rating,2993,,,,,2022-06-16 20:20:47,18785
6282575ebe32fdc6268babc8,ma_choice_v4_real1,6282575ebe32fdc6268babc8,0,Closeness to parks,0,,,wad_att_rating,2530,,,,,2022-06-16 20:20:50,18786
6282575ebe32fdc6268babc8,ma_choice_v4_real1,6282575ebe32fdc6268babc8,3,Year building was built,37,,,wad_att_rating,6130,,,,,2022-06-16 20:20:56,18787
6282575ebe32fdc6268babc8,ma_choice_v4_real1,6282575ebe32fdc6268babc8,6,Quality of heat/AC system,88,,,wad_att_rating,4506,,,,,2022-06-16 20:21:00,18788
6282575ebe32fdc6268babc8,ma_choice_v4_real1,6282575ebe32fdc6268babc8,0,Quality of kitchen,1,,,ew_att_rating,8731,,,,,2022-06-16 20:21:18,18789
6282575ebe32fdc6268babc8,ma_choice_v4_real1,6282575ebe32fdc6268babc8,0,Quality of heat/AC system,1,,,ew_att_rating,8731,,,,,2022-06-16 20:21:18,18790
5e28c4b59f0de509e0322c85,ma_choice_v4_real1,5e28c4b59f0de509e0322c85,4,Size of yard,-1,300 square feet,0 square feet,direction,3473,,,,,2022-06-16 20:21:42,18791
5e28c4b59f0de509e0322c85,ma_choice_v4_real1,5e28c4b59f0de509e0322c85,6,Quality of heat/AC system,-1,Very Good,Very Bad,direction,1750,,,,,2022-06-16 20:21:46,18792
598ba20f716a2c000187ce01,ma_choice_v4_real1,598ba20f716a2c000187ce01,2,Reputation of closest school,0,,,wad_att_rating,5026,,,,,2022-06-16 20:21:50,18793
5e28c4b59f0de509e0322c85,ma_choice_v4_real1,5e28c4b59f0de509e0322c85,5,Quality of kitchen,-1,Very Good,Very Bad,direction,1717,,,,,2022-06-16 20:21:52,18794
598ba20f716a2c000187ce01,ma_choice_v4_real1,598ba20f716a2c000187ce01,7,Amount of traffic,73,,,wad_att_rating,4510,,,,,2022-06-16 20:21:55,18795
598ba20f716a2c000187ce01,ma_choice_v4_real1,598ba20f716a2c000187ce01,5,Quality of kitchen,25,,,wad_att_rating,3299,,,,,2022-06-16 20:21:58,18796
5e28c4b59f0de509e0322c85,ma_choice_v4_real1,5e28c4b59f0de509e0322c85,1,Noise pollution,-1,Very Low,Very High,direction,2376,,,,,2022-06-16 20:22:01,18797
598ba20f716a2c000187ce01,ma_choice_v4_real1,598ba20f716a2c000187ce01,1,Noise pollution,100,,,wad_att_rating,4064,,,,,2022-06-16 20:22:02,18798
598ba20f716a2c000187ce01,ma_choice_v4_real1,598ba20f716a2c000187ce01,0,Closeness to parks,0,,,wad_att_rating,4387,,,,,2022-06-16 20:22:07,18799
5e28c4b59f0de509e0322c85,ma_choice_v4_real1,5e28c4b59f0de509e0322c85,3,Year building was built,-1,1985,1950,direction,1503,,,,,2022-06-16 20:22:08,18800
598ba20f716a2c000187ce01,ma_choice_v4_real1,598ba20f716a2c000187ce01,3,Year building was built,0,,,wad_att_rating,3070,,,,,2022-06-16 20:22:10,18801
598ba20f716a2c000187ce01,ma_choice_v4_real1,598ba20f716a2c000187ce01,8,Size of home,55,,,wad_att_rating,4024,,,,,2022-06-16 20:22:14,18802
5e28c4b59f0de509e0322c85,ma_choice_v4_real1,5e28c4b59f0de509e0322c85,7,Amount of traffic,-1,Very Little,A Lot,direction,2671,,,,,2022-06-16 20:22:17,18803
598ba20f716a2c000187ce01,ma_choice_v4_real1,598ba20f716a2c000187ce01,6,Quality of heat/AC system,41,,,wad_att_rating,3527,,,,,2022-06-16 20:22:17,18804
5af9fab60a7ecb00011820b8,ma_choice_v4_real1,5af9fab60a7ecb00011820b8,0,Quality of kitchen,1,,,lex_att_rating,6187,,,,,2022-06-16 20:22:17,18805
5e28c4b59f0de509e0322c85,ma_choice_v4_real1,5e28c4b59f0de509e0322c85,2,Reputation of closest school,-1,Very Good,Very Bad,direction,1597,,,,,2022-06-16 20:22:22,18806
598ba20f716a2c000187ce01,ma_choice_v4_real1,598ba20f716a2c000187ce01,4,Size of yard,25,,,wad_att_rating,5110,,,,,2022-06-16 20:22:22,18807
5af9fab60a7ecb00011820b8,ma_choice_v4_real1,5af9fab60a7ecb00011820b8,0,Closeness to parks,12,,,wad_att_rating,5819,,,,,2022-06-16 20:22:27,18808
5e28c4b59f0de509e0322c85,ma_choice_v4_real1,5e28c4b59f0de509e0322c85,0,Closeness to parks,-1,15 min away,30 min away,direction,3068,,,,,2022-06-16 20:22:30,18809
5af9fab60a7ecb00011820b8,ma_choice_v4_real1,5af9fab60a7ecb00011820b8,5,Quality of kitchen,77,,,wad_att_rating,4077,,,,,2022-06-16 20:22:30,18810
5af9fab60a7ecb00011820b8,ma_choice_v4_real1,5af9fab60a7ecb00011820b8,6,Quality of heat/AC system,78,,,wad_att_rating,3088,,,,,2022-06-16 20:22:34,18811
5e28c4b59f0de509e0322c85,ma_choice_v4_real1,5e28c4b59f0de509e0322c85,8,Size of home,-1,1800 square feet,600 square feet,direction,1517,,,,,2022-06-16 20:22:35,18812
5af9fab60a7ecb00011820b8,ma_choice_v4_real1,5af9fab60a7ecb00011820b8,2,Reputation of closest school,0,,,wad_att_rating,3840,,,,,2022-06-16 20:22:37,18813
5af9fab60a7ecb00011820b8,ma_choice_v4_real1,5af9fab60a7ecb00011820b8,4,Size of yard,24,,,wad_att_rating,3121,,,,,2022-06-16 20:22:41,18814
5af9fab60a7ecb00011820b8,ma_choice_v4_real1,5af9fab60a7ecb00011820b8,1,Noise pollution,50,,,wad_att_rating,4147,,,,,2022-06-16 20:22:45,18815
5af9fab60a7ecb00011820b8,ma_choice_v4_real1,5af9fab60a7ecb00011820b8,3,Year building was built,26,,,wad_att_rating,3079,,,,,2022-06-16 20:22:48,18816
5af9fab60a7ecb00011820b8,ma_choice_v4_real1,5af9fab60a7ecb00011820b8,7,Amount of traffic,50,,,wad_att_rating,4336,,,,,2022-06-16 20:22:52,18817
5af9fab60a7ecb00011820b8,ma_choice_v4_real1,5af9fab60a7ecb00011820b8,8,Size of home,50,,,wad_att_rating,2898,,,,,2022-06-16 20:22:55,18818
598ba20f716a2c000187ce01,ma_choice_v4_real1,598ba20f716a2c000187ce01,0,Noise pollution,1,,,ew_att_rating,24476,,,,,2022-06-16 20:23:10,18819
598ba20f716a2c000187ce01,ma_choice_v4_real1,598ba20f716a2c000187ce01,0,Amount of traffic,1,,,ew_att_rating,24476,,,,,2022-06-16 20:23:10,18820
5af9fab60a7ecb00011820b8,ma_choice_v4_real1,5af9fab60a7ecb00011820b8,0,Quality of heat/AC system,1,,,ew_att_rating,16433,,,,,2022-06-16 20:23:14,18821
5af9fab60a7ecb00011820b8,ma_choice_v4_real1,5af9fab60a7ecb00011820b8,0,Quality of kitchen,1,,,ew_att_rating,16433,,,,,2022-06-16 20:23:14,18822
5af9fab60a7ecb00011820b8,ma_choice_v4_real1,5af9fab60a7ecb00011820b8,0,Noise pollution,1,,,ew_att_rating,16433,,,,,2022-06-16 20:23:14,18823
5af9fab60a7ecb00011820b8,ma_choice_v4_real1,5af9fab60a7ecb00011820b8,0,Amount of traffic,1,,,ew_att_rating,16433,,,,,2022-06-16 20:23:14,18824
598ba20f716a2c000187ce01,ma_choice_v4_real1,598ba20f716a2c000187ce01,0,Noise pollution,1,,,lex_att_rating,5941,,,,,2022-06-16 20:23:28,18844
5af9fab60a7ecb00011820b8,ma_choice_v4_real1,5af9fab60a7ecb00011820b8,7,Amount of traffic,-1,A Little,A Lot,direction,2845,,,,,2022-06-16 20:23:50,18845
5af9fab60a7ecb00011820b8,ma_choice_v4_real1,5af9fab60a7ecb00011820b8,8,Size of home,-1,1200 square feet,1800 square feet,direction,2893,,,,,2022-06-16 20:23:56,18846
5af9fab60a7ecb00011820b8,ma_choice_v4_real1,5af9fab60a7ecb00011820b8,4,Size of yard,-1,300 square feet,0 square feet,direction,2306,,,,,2022-06-16 20:24:01,18847
5af9fab60a7ecb00011820b8,ma_choice_v4_real1,5af9fab60a7ecb00011820b8,3,Year building was built,-1,1985,1950,direction,2915,,,,,2022-06-16 20:24:11,18848
5af9fab60a7ecb00011820b8,ma_choice_v4_real1,5af9fab60a7ecb00011820b8,0,Closeness to parks,-1,10 min away,30 min away,direction,2441,,,,,2022-06-16 20:24:19,18849
5af9fab60a7ecb00011820b8,ma_choice_v4_real1,5af9fab60a7ecb00011820b8,5,Quality of kitchen,-1,Very Good,Very Bad,direction,3356,,,,,2022-06-16 20:24:25,18850
5af9fab60a7ecb00011820b8,ma_choice_v4_real1,5af9fab60a7ecb00011820b8,6,Quality of heat/AC system,-1,Very Good,Very Bad,direction,1902,,,,,2022-06-16 20:24:29,18851
5af9fab60a7ecb00011820b8,ma_choice_v4_real1,5af9fab60a7ecb00011820b8,2,Reputation of closest school,-1,Very Good,Very Bad,direction,2198,,,,,2022-06-16 20:24:35,18852
5af9fab60a7ecb00011820b8,ma_choice_v4_real1,5af9fab60a7ecb00011820b8,1,Noise pollution,-1,Very Low,Very High,direction,3205,,,,,2022-06-16 20:24:42,18853
5dde0d3ce2dcbdd798721c65,ma_choice_v4_real1,5dde0d3ce2dcbdd798721c65,1,Noise pollution,61,,,wad_att_rating,8285,,,,,2022-06-16 20:25:04,18854
5dde0d3ce2dcbdd798721c65,ma_choice_v4_real1,5dde0d3ce2dcbdd798721c65,2,Reputation of closest school,0,,,wad_att_rating,3981,,,,,2022-06-16 20:25:08,18855
5dde0d3ce2dcbdd798721c65,ma_choice_v4_real1,5dde0d3ce2dcbdd798721c65,7,Amount of traffic,62,,,wad_att_rating,5234,,,,,2022-06-16 20:25:13,18856
5dde0d3ce2dcbdd798721c65,ma_choice_v4_real1,5dde0d3ce2dcbdd798721c65,8,Size of home,11,,,wad_att_rating,4500,,,,,2022-06-16 20:25:18,18857
5dde0d3ce2dcbdd798721c65,ma_choice_v4_real1,5dde0d3ce2dcbdd798721c65,6,Quality of heat/AC system,88,,,wad_att_rating,5618,,,,,2022-06-16 20:25:23,18858
5dde0d3ce2dcbdd798721c65,ma_choice_v4_real1,5dde0d3ce2dcbdd798721c65,0,Closeness to parks,0,,,wad_att_rating,5980,,,,,2022-06-16 20:25:29,18859
5dde0d3ce2dcbdd798721c65,ma_choice_v4_real1,5dde0d3ce2dcbdd798721c65,3,Year building was built,0,,,wad_att_rating,3624,,,,,2022-06-16 20:25:33,18860
5dde0d3ce2dcbdd798721c65,ma_choice_v4_real1,5dde0d3ce2dcbdd798721c65,4,Size of yard,0,,,wad_att_rating,3270,,,,,2022-06-16 20:25:36,18861
5dde0d3ce2dcbdd798721c65,ma_choice_v4_real1,5dde0d3ce2dcbdd798721c65,5,Quality of kitchen,76,,,wad_att_rating,4553,,,,,2022-06-16 20:25:41,18862
5dde0d3ce2dcbdd798721c65,ma_choice_v4_real1,5dde0d3ce2dcbdd798721c65,0,Quality of kitchen,1,,,ew_att_rating,8558,,,,,2022-06-16 20:26:04,18863
5dde0d3ce2dcbdd798721c65,ma_choice_v4_real1,5dde0d3ce2dcbdd798721c65,0,Quality of heat/AC system,1,,,ew_att_rating,8558,,,,,2022-06-16 20:26:04,18864
5dde0d3ce2dcbdd798721c65,ma_choice_v4_real1,5dde0d3ce2dcbdd798721c65,0,Quality of heat/AC system,1,,,lex_att_rating,7635,,,,,2022-06-16 20:26:20,18865
6282575ebe32fdc6268babc8,ma_choice_v4_real1,6282575ebe32fdc6268babc8,8,Size of home,-1,1200 square feet,600 square feet,direction,3016,,,,,2022-06-16 20:27:49,18886
6282575ebe32fdc6268babc8,ma_choice_v4_real1,6282575ebe32fdc6268babc8,4,Size of yard,-1,600 square feet,0 square feet,direction,1994,,,,,2022-06-16 20:27:54,18887
5b1f185488ee7400012b4b5c,ma_choice_v4_real1,5b1f185488ee7400012b4b5c,0,Quality of heat/AC system,1,,,ew_att_rating,10915,,,,,2022-06-16 20:28:01,18888
5b1f185488ee7400012b4b5c,ma_choice_v4_real1,5b1f185488ee7400012b4b5c,0,Quality of kitchen,1,,,ew_att_rating,10915,,,,,2022-06-16 20:28:01,18889
6282575ebe32fdc6268babc8,ma_choice_v4_real1,6282575ebe32fdc6268babc8,0,Closeness to parks,-1,10 min away,30 min away,direction,2784,,,,,2022-06-16 20:28:02,18890
5dde0d3ce2dcbdd798721c65,ma_choice_v4_real1,5dde0d3ce2dcbdd798721c65,3,Year building was built,-1,1985,2020,direction,5012,,,,,2022-06-16 20:28:06,18891
6282575ebe32fdc6268babc8,ma_choice_v4_real1,6282575ebe32fdc6268babc8,6,Quality of heat/AC system,-1,Very Good,Very Bad,direction,2370,,,,,2022-06-16 20:28:08,18892
6282575ebe32fdc6268babc8,ma_choice_v4_real1,6282575ebe32fdc6268babc8,5,Quality of kitchen,-1,Very Good,Very Bad,direction,3348,,,,,2022-06-16 20:28:13,18893
5dde0d3ce2dcbdd798721c65,ma_choice_v4_real1,5dde0d3ce2dcbdd798721c65,8,Size of home,-1,1200 square feet,1800 square feet,direction,4971,,,,,2022-06-16 20:28:17,18894
6282575ebe32fdc6268babc8,ma_choice_v4_real1,6282575ebe32fdc6268babc8,2,Reputation of closest school,-1,Very Good,Very Bad,direction,1785,,,,,2022-06-16 20:28:18,18895
5b1f185488ee7400012b4b5c,ma_choice_v4_real1,5b1f185488ee7400012b4b5c,3,Year building was built,6,,,wad_att_rating,8082,,,,,2022-06-16 20:28:19,18896
5b1f185488ee7400012b4b5c,ma_choice_v4_real1,5b1f185488ee7400012b4b5c,0,Closeness to parks,50,,,wad_att_rating,4347,,,,,2022-06-16 20:28:23,18897
6282575ebe32fdc6268babc8,ma_choice_v4_real1,6282575ebe32fdc6268babc8,3,Year building was built,-1,2020,1950,direction,2414,,,,,2022-06-16 20:28:24,18898
5b1f185488ee7400012b4b5c,ma_choice_v4_real1,5b1f185488ee7400012b4b5c,2,Reputation of closest school,5,,,wad_att_rating,5073,,,,,2022-06-16 20:28:28,18899
5dde0d3ce2dcbdd798721c65,ma_choice_v4_real1,5dde0d3ce2dcbdd798721c65,5,Quality of kitchen,-1,Very Good,Very Bad,direction,3677,,,,,2022-06-16 20:28:29,18900
6282575ebe32fdc6268babc8,ma_choice_v4_real1,6282575ebe32fdc6268babc8,7,Amount of traffic,-1,Very Little,A Lot,direction,1725,,,,,2022-06-16 20:28:30,18901
5b1f185488ee7400012b4b5c,ma_choice_v4_real1,5b1f185488ee7400012b4b5c,8,Size of home,38,,,wad_att_rating,3720,,,,,2022-06-16 20:28:32,18902
5b1f185488ee7400012b4b5c,ma_choice_v4_real1,5b1f185488ee7400012b4b5c,4,Size of yard,5,,,wad_att_rating,3549,,,,,2022-06-16 20:28:35,18903
6282575ebe32fdc6268babc8,ma_choice_v4_real1,6282575ebe32fdc6268babc8,1,Noise pollution,-1,Very Low,Very High,direction,2072,,,,,2022-06-16 20:28:36,18904
5b1f185488ee7400012b4b5c,ma_choice_v4_real1,5b1f185488ee7400012b4b5c,5,Quality of kitchen,75,,,wad_att_rating,4345,,,,,2022-06-16 20:28:40,18905
5b1f185488ee7400012b4b5c,ma_choice_v4_real1,5b1f185488ee7400012b4b5c,7,Amount of traffic,50,,,wad_att_rating,3727,,,,,2022-06-16 20:28:43,18906
5dde0d3ce2dcbdd798721c65,ma_choice_v4_real1,5dde0d3ce2dcbdd798721c65,2,Reputation of closest school,-1,Very Good,Very Bad,direction,2635,,,,,2022-06-16 20:28:45,18907
5b1f185488ee7400012b4b5c,ma_choice_v4_real1,5b1f185488ee7400012b4b5c,6,Quality of heat/AC system,100,,,wad_att_rating,4543,,,,,2022-06-16 20:28:48,18908
5b1f185488ee7400012b4b5c,ma_choice_v4_real1,5b1f185488ee7400012b4b5c,1,Noise pollution,74,,,wad_att_rating,3610,,,,,2022-06-16 20:28:52,18909
5dde0d3ce2dcbdd798721c65,ma_choice_v4_real1,5dde0d3ce2dcbdd798721c65,1,Noise pollution,-1,Very Low,Very High,direction,2534,,,,,2022-06-16 20:28:55,18910
5dde0d3ce2dcbdd798721c65,ma_choice_v4_real1,5dde0d3ce2dcbdd798721c65,0,Closeness to parks,-1,15 min away,30 min away,direction,3149,,,,,2022-06-16 20:29:04,18911
5b1f185488ee7400012b4b5c,ma_choice_v4_real1,5b1f185488ee7400012b4b5c,0,Quality of heat/AC system,1,,,lex_att_rating,6408,,,,,2022-06-16 20:29:09,18912
5df66d09dc8535465a0b0bae,ma_choice_v4_real1,5df66d09dc8535465a0b0bae,0,Quality of kitchen,1,,,ew_att_rating,13839,,,,,2022-06-16 20:29:13,18913
5df66d09dc8535465a0b0bae,ma_choice_v4_real1,5df66d09dc8535465a0b0bae,0,Quality of heat/AC system,1,,,ew_att_rating,13839,,,,,2022-06-16 20:29:13,18914
5dde0d3ce2dcbdd798721c65,ma_choice_v4_real1,5dde0d3ce2dcbdd798721c65,4,Size of yard,-1,600 square feet,0 square feet,direction,2381,,,,,2022-06-16 20:29:13,18915
5dde0d3ce2dcbdd798721c65,ma_choice_v4_real1,5dde0d3ce2dcbdd798721c65,7,Amount of traffic,-1,Very Little,A Lot,direction,2596,,,,,2022-06-16 20:29:21,18916
5dde0d3ce2dcbdd798721c65,ma_choice_v4_real1,5dde0d3ce2dcbdd798721c65,6,Quality of heat/AC system,-1,Very Good,Very Bad,direction,2505,,,,,2022-06-16 20:29:28,18917
5df66d09dc8535465a0b0bae,ma_choice_v4_real1,5df66d09dc8535465a0b0bae,0,Quality of heat/AC system,1,,,lex_att_rating,4457,,,,,2022-06-16 20:29:29,18918
5df66d09dc8535465a0b0bae,ma_choice_v4_real1,5df66d09dc8535465a0b0bae,5,Quality of kitchen,61,,,wad_att_rating,7430,,,,,2022-06-16 20:29:45,18919
5df66d09dc8535465a0b0bae,ma_choice_v4_real1,5df66d09dc8535465a0b0bae,8,Size of home,49,,,wad_att_rating,5866,,,,,2022-06-16 20:29:51,18920
5df66d09dc8535465a0b0bae,ma_choice_v4_real1,5df66d09dc8535465a0b0bae,6,Quality of heat/AC system,100,,,wad_att_rating,5330,,,,,2022-06-16 20:29:56,18921
5df66d09dc8535465a0b0bae,ma_choice_v4_real1,5df66d09dc8535465a0b0bae,1,Noise pollution,3,,,wad_att_rating,9613,,,,,2022-06-16 20:30:06,18922
5df66d09dc8535465a0b0bae,ma_choice_v4_real1,5df66d09dc8535465a0b0bae,7,Amount of traffic,13,,,wad_att_rating,5197,,,,,2022-06-16 20:30:11,18923
5df66d09dc8535465a0b0bae,ma_choice_v4_real1,5df66d09dc8535465a0b0bae,3,Year building was built,62,,,wad_att_rating,4649,,,,,2022-06-16 20:30:16,18924
5df66d09dc8535465a0b0bae,ma_choice_v4_real1,5df66d09dc8535465a0b0bae,4,Size of yard,36,,,wad_att_rating,4652,,,,,2022-06-16 20:30:20,18925
5df66d09dc8535465a0b0bae,ma_choice_v4_real1,5df66d09dc8535465a0b0bae,0,Closeness to parks,37,,,wad_att_rating,4857,,,,,2022-06-16 20:30:25,18926
5df66d09dc8535465a0b0bae,ma_choice_v4_real1,5df66d09dc8535465a0b0bae,2,Reputation of closest school,6,,,wad_att_rating,6332,,,,,2022-06-16 20:30:31,18927
5c7d59f5d454af00160e34d2,ma_choice_v4_real1,5c7d59f5d454af00160e34d2,0,Year building was built,1,,,ew_att_rating,12137,,,,,2022-06-16 20:31:26,18928
5c7d59f5d454af00160e34d2,ma_choice_v4_real1,5c7d59f5d454af00160e34d2,0,Size of home,1,,,ew_att_rating,12137,,,,,2022-06-16 20:31:26,18929
5c7d59f5d454af00160e34d2,ma_choice_v4_real1,5c7d59f5d454af00160e34d2,0,Size of yard,1,,,ew_att_rating,12137,,,,,2022-06-16 20:31:26,18930
5c7d59f5d454af00160e34d2,ma_choice_v4_real1,5c7d59f5d454af00160e34d2,2,Reputation of closest school,13,,,wad_att_rating,4876,,,,,2022-06-16 20:31:33,18931
5c7d59f5d454af00160e34d2,ma_choice_v4_real1,5c7d59f5d454af00160e34d2,7,Amount of traffic,36,,,wad_att_rating,4351,,,,,2022-06-16 20:31:37,18932
5c7d59f5d454af00160e34d2,ma_choice_v4_real1,5c7d59f5d454af00160e34d2,8,Size of home,75,,,wad_att_rating,3304,,,,,2022-06-16 20:31:41,18933
5c7d59f5d454af00160e34d2,ma_choice_v4_real1,5c7d59f5d454af00160e34d2,3,Year building was built,74,,,wad_att_rating,2122,,,,,2022-06-16 20:31:43,18934
5c7d59f5d454af00160e34d2,ma_choice_v4_real1,5c7d59f5d454af00160e34d2,6,Quality of heat/AC system,62,,,wad_att_rating,4204,,,,,2022-06-16 20:31:47,18935
5c7d59f5d454af00160e34d2,ma_choice_v4_real1,5c7d59f5d454af00160e34d2,4,Size of yard,74,,,wad_att_rating,2255,,,,,2022-06-16 20:31:49,18936
5c7d59f5d454af00160e34d2,ma_choice_v4_real1,5c7d59f5d454af00160e34d2,1,Noise pollution,37,,,wad_att_rating,4132,,,,,2022-06-16 20:31:54,18937
5c7d59f5d454af00160e34d2,ma_choice_v4_real1,5c7d59f5d454af00160e34d2,5,Quality of kitchen,62,,,wad_att_rating,2264,,,,,2022-06-16 20:31:56,18938
5c7d59f5d454af00160e34d2,ma_choice_v4_real1,5c7d59f5d454af00160e34d2,0,Closeness to parks,24,,,wad_att_rating,4969,,,,,2022-06-16 20:32:01,18939
5c7d59f5d454af00160e34d2,ma_choice_v4_real1,5c7d59f5d454af00160e34d2,0,Size of home,1,,,lex_att_rating,3469,,,,,2022-06-16 20:32:09,18940
598ba20f716a2c000187ce01,ma_choice_v4_real1,598ba20f716a2c000187ce01,3,Year building was built,-1,2020,1950,direction,4749,,,,,2022-06-16 20:33:06,18941
598ba20f716a2c000187ce01,ma_choice_v4_real1,598ba20f716a2c000187ce01,2,Reputation of closest school,-1,Very Good,Very Bad,direction,3731,,,,,2022-06-16 20:33:15,18942
598ba20f716a2c000187ce01,ma_choice_v4_real1,598ba20f716a2c000187ce01,1,Noise pollution,-1,Very Low,Very High,direction,2190,,,,,2022-06-16 20:33:23,18943
598ba20f716a2c000187ce01,ma_choice_v4_real1,598ba20f716a2c000187ce01,0,Closeness to parks,-1,25 min away,10 min away,direction,3736,,,,,2022-06-16 20:33:37,18944
598ba20f716a2c000187ce01,ma_choice_v4_real1,598ba20f716a2c000187ce01,6,Quality of heat/AC system,-1,Very Good,Very Bad,direction,2679,,,,,2022-06-16 20:33:44,18945
55e59b81c70c7a000b2a5ad9,ma_choice_v4_real1,55e59b81c70c7a000b2a5ad9,0,Reputation of closest school,1,,,ew_att_rating,11897,,,,,2022-06-16 20:33:54,18946
598ba20f716a2c000187ce01,ma_choice_v4_real1,598ba20f716a2c000187ce01,8,Size of home,-1,1200 square feet,600 square feet,direction,3684,,,,,2022-06-16 20:33:55,18947
598ba20f716a2c000187ce01,ma_choice_v4_real1,598ba20f716a2c000187ce01,5,Quality of kitchen,-1,Very Good,Very Bad,direction,2304,,,,,2022-06-16 20:34:01,18948
5da4d35c84ea7900178a366c,ma_choice_v4_real1,5da4d35c84ea7900178a366c,0,Quality of heat/AC system,1,,,lex_att_rating,4379,,,,,2022-06-16 20:34:04,18949
55e59b81c70c7a000b2a5ad9,ma_choice_v4_real1,55e59b81c70c7a000b2a5ad9,0,Reputation of closest school,1,,,lex_att_rating,6678,,,,,2022-06-16 20:34:13,18950
598ba20f716a2c000187ce01,ma_choice_v4_real1,598ba20f716a2c000187ce01,4,Size of yard,-1,300 square feet,600 square feet,direction,5207,,,,,2022-06-16 20:34:15,18951
5da4d35c84ea7900178a366c,ma_choice_v4_real1,5da4d35c84ea7900178a366c,0,Quality of kitchen,1,,,ew_att_rating,14147,,,,,2022-06-16 20:34:21,18952
5da4d35c84ea7900178a366c,ma_choice_v4_real1,5da4d35c84ea7900178a366c,0,Quality of heat/AC system,1,,,ew_att_rating,14147,,,,,2022-06-16 20:34:21,18953
598ba20f716a2c000187ce01,ma_choice_v4_real1,598ba20f716a2c000187ce01,7,Amount of traffic,-1,Very Little,A Lot,direction,1882,,,,,2022-06-16 20:34:28,18954
5da4d35c84ea7900178a366c,ma_choice_v4_real1,5da4d35c84ea7900178a366c,4,Size of yard,0,,,wad_att_rating,3499,,,,,2022-06-16 20:34:29,18955
55e59b81c70c7a000b2a5ad9,ma_choice_v4_real1,55e59b81c70c7a000b2a5ad9,5,Quality of kitchen,0,,,wad_att_rating,9499,,,,,2022-06-16 20:34:31,18956
5da4d35c84ea7900178a366c,ma_choice_v4_real1,5da4d35c84ea7900178a366c,0,Closeness to parks,0,,,wad_att_rating,3298,,,,,2022-06-16 20:34:32,18957
5da4d35c84ea7900178a366c,ma_choice_v4_real1,5da4d35c84ea7900178a366c,7,Amount of traffic,0,,,wad_att_rating,1994,,,,,2022-06-16 20:34:34,18958
55e59b81c70c7a000b2a5ad9,ma_choice_v4_real1,55e59b81c70c7a000b2a5ad9,4,Size of yard,0,,,wad_att_rating,3408,,,,,2022-06-16 20:34:35,18959
5da4d35c84ea7900178a366c,ma_choice_v4_real1,5da4d35c84ea7900178a366c,3,Year building was built,0,,,wad_att_rating,1910,,,,,2022-06-16 20:34:36,18960
5da4d35c84ea7900178a366c,ma_choice_v4_real1,5da4d35c84ea7900178a366c,8,Size of home,25,,,wad_att_rating,3738,,,,,2022-06-16 20:34:40,18961
55e59b81c70c7a000b2a5ad9,ma_choice_v4_real1,55e59b81c70c7a000b2a5ad9,8,Size of home,25,,,wad_att_rating,5235,,,,,2022-06-16 20:34:40,18962
5da4d35c84ea7900178a366c,ma_choice_v4_real1,5da4d35c84ea7900178a366c,6,Quality of heat/AC system,100,,,wad_att_rating,2758,,,,,2022-06-16 20:34:42,18963
55e59b81c70c7a000b2a5ad9,ma_choice_v4_real1,55e59b81c70c7a000b2a5ad9,3,Year building was built,0,,,wad_att_rating,3044,,,,,2022-06-16 20:34:43,18964
5da4d35c84ea7900178a366c,ma_choice_v4_real1,5da4d35c84ea7900178a366c,1,Noise pollution,0,,,wad_att_rating,3074,,,,,2022-06-16 20:34:45,18965
55e59b81c70c7a000b2a5ad9,ma_choice_v4_real1,55e59b81c70c7a000b2a5ad9,7,Amount of traffic,0,,,wad_att_rating,2496,,,,,2022-06-16 20:34:46,18966
55e59b81c70c7a000b2a5ad9,ma_choice_v4_real1,55e59b81c70c7a000b2a5ad9,1,Noise pollution,0,,,wad_att_rating,2855,,,,,2022-06-16 20:34:49,18967
5da4d35c84ea7900178a366c,ma_choice_v4_real1,5da4d35c84ea7900178a366c,5,Quality of kitchen,50,,,wad_att_rating,3646,,,,,2022-06-16 20:34:49,18968
5da4d35c84ea7900178a366c,ma_choice_v4_real1,5da4d35c84ea7900178a366c,2,Reputation of closest school,0,,,wad_att_rating,2226,,,,,2022-06-16 20:34:51,18969
55e59b81c70c7a000b2a5ad9,ma_choice_v4_real1,55e59b81c70c7a000b2a5ad9,6,Quality of heat/AC system,0,,,wad_att_rating,2874,,,,,2022-06-16 20:34:51,18970
55e59b81c70c7a000b2a5ad9,ma_choice_v4_real1,55e59b81c70c7a000b2a5ad9,2,Reputation of closest school,100,,,wad_att_rating,5124,,,,,2022-06-16 20:34:56,18971
55e59b81c70c7a000b2a5ad9,ma_choice_v4_real1,55e59b81c70c7a000b2a5ad9,0,Closeness to parks,0,,,wad_att_rating,3309,,,,,2022-06-16 20:35:00,18972
5c7d59f5d454af00160e34d2,ma_choice_v4_real1,5c7d59f5d454af00160e34d2,8,Size of home,-1,1800 square feet,600 square feet,direction,2525,,,,,2022-06-16 20:36:00,18973
5c7d59f5d454af00160e34d2,ma_choice_v4_real1,5c7d59f5d454af00160e34d2,5,Quality of kitchen,-1,Very Good,Very Bad,direction,1764,,,,,2022-06-16 20:36:04,18974
5c7d59f5d454af00160e34d2,ma_choice_v4_real1,5c7d59f5d454af00160e34d2,6,Quality of heat/AC system,-1,Very Good,Very Bad,direction,1581,,,,,2022-06-16 20:36:07,18975
5c7d59f5d454af00160e34d2,ma_choice_v4_real1,5c7d59f5d454af00160e34d2,3,Year building was built,-1,2020,1950,direction,2782,,,,,2022-06-16 20:36:13,18976
5c7d59f5d454af00160e34d2,ma_choice_v4_real1,5c7d59f5d454af00160e34d2,4,Size of yard,-1,600 square feet,0 square feet,direction,1441,,,,,2022-06-16 20:36:18,18977
5c7d59f5d454af00160e34d2,ma_choice_v4_real1,5c7d59f5d454af00160e34d2,0,Closeness to parks,-1,10 min away,30 min away,direction,1944,,,,,2022-06-16 20:36:23,18978
55e59b81c70c7a000b2a5ad9,ma_choice_v4_real1,55e59b81c70c7a000b2a5ad9,3,Year building was built,-1,2020,1950,direction,5155,,,,,2022-06-16 20:36:26,18979
5c7d59f5d454af00160e34d2,ma_choice_v4_real1,5c7d59f5d454af00160e34d2,2,Reputation of closest school,-1,Very Good,Very Bad,direction,2042,,,,,2022-06-16 20:36:28,18980
5c7d59f5d454af00160e34d2,ma_choice_v4_real1,5c7d59f5d454af00160e34d2,7,Amount of traffic,-1,Very Little,A Lot,direction,1846,,,,,2022-06-16 20:36:32,18981
5c7d59f5d454af00160e34d2,ma_choice_v4_real1,5c7d59f5d454af00160e34d2,1,Noise pollution,-1,Very Low,Very High,direction,1378,,,,,2022-06-16 20:36:36,18982
55e59b81c70c7a000b2a5ad9,ma_choice_v4_real1,55e59b81c70c7a000b2a5ad9,8,Size of home,-1,1800 square feet,600 square feet,direction,2977,,,,,2022-06-16 20:36:42,18983
55e59b81c70c7a000b2a5ad9,ma_choice_v4_real1,55e59b81c70c7a000b2a5ad9,2,Reputation of closest school,-1,Very Good,Very Bad,direction,5429,,,,,2022-06-16 20:36:52,18984
5da4d35c84ea7900178a366c,ma_choice_v4_real1,5da4d35c84ea7900178a366c,4,Size of yard,-1,300 square feet,600 square feet,direction,7076,,,,,2022-06-16 20:36:52,18985
55e59b81c70c7a000b2a5ad9,ma_choice_v4_real1,55e59b81c70c7a000b2a5ad9,0,Closeness to parks,-1,10 min away,30 min away,direction,2443,,,,,2022-06-16 20:37:00,18986
5da4d35c84ea7900178a366c,ma_choice_v4_real1,5da4d35c84ea7900178a366c,5,Quality of kitchen,-1,Very Good,Very Bad,direction,2686,,,,,2022-06-16 20:37:01,18987
5e8b32ec2c33ae7f20a0b401,ma_choice_v4_real1,5e8b32ec2c33ae7f20a0b401,8,Size of home,27,,,wad_att_rating,7526,,,,,2022-06-16 20:37:03,18988
5e8b32ec2c33ae7f20a0b401,ma_choice_v4_real1,5e8b32ec2c33ae7f20a0b401,0,Closeness to parks,51,,,wad_att_rating,3653,,,,,2022-06-16 20:37:07,18989
55e59b81c70c7a000b2a5ad9,ma_choice_v4_real1,55e59b81c70c7a000b2a5ad9,5,Quality of kitchen,-1,Very Good,Very Bad,direction,2547,,,,,2022-06-16 20:37:08,18990
5e8b32ec2c33ae7f20a0b401,ma_choice_v4_real1,5e8b32ec2c33ae7f20a0b401,1,Noise pollution,100,,,wad_att_rating,4950,,,,,2022-06-16 20:37:12,18991
55e59b81c70c7a000b2a5ad9,ma_choice_v4_real1,55e59b81c70c7a000b2a5ad9,6,Quality of heat/AC system,-1,Very Good,Very Bad,direction,3270,,,,,2022-06-16 20:37:13,18992
5da4d35c84ea7900178a366c,ma_choice_v4_real1,5da4d35c84ea7900178a366c,7,Amount of traffic,-1,A Lot,A Little,direction,11578,,,,,2022-06-16 20:37:16,18993
5e8b32ec2c33ae7f20a0b401,ma_choice_v4_real1,5e8b32ec2c33ae7f20a0b401,4,Size of yard,29,,,wad_att_rating,4102,,,,,2022-06-16 20:37:16,18994
5e8b32ec2c33ae7f20a0b401,ma_choice_v4_real1,5e8b32ec2c33ae7f20a0b401,5,Quality of kitchen,27,,,wad_att_rating,2774,,,,,2022-06-16 20:37:18,18995
55e59b81c70c7a000b2a5ad9,ma_choice_v4_real1,55e59b81c70c7a000b2a5ad9,4,Size of yard,-1,600 square feet,0 square feet,direction,2856,,,,,2022-06-16 20:37:20,18996
5e8b32ec2c33ae7f20a0b401,ma_choice_v4_real1,5e8b32ec2c33ae7f20a0b401,6,Quality of heat/AC system,32,,,wad_att_rating,3366,,,,,2022-06-16 20:37:22,18997
5da4d35c84ea7900178a366c,ma_choice_v4_real1,5da4d35c84ea7900178a366c,1,Noise pollution,-1,Very Low,Very High,direction,3256,,,,,2022-06-16 20:37:23,18998
5e8b32ec2c33ae7f20a0b401,ma_choice_v4_real1,5e8b32ec2c33ae7f20a0b401,3,Year building was built,49,,,wad_att_rating,3614,,,,,2022-06-16 20:37:25,18999
55e59b81c70c7a000b2a5ad9,ma_choice_v4_real1,55e59b81c70c7a000b2a5ad9,1,Noise pollution,-1,Very Low,Very High,direction,3678,,,,,2022-06-16 20:37:27,19000
5e8b32ec2c33ae7f20a0b401,ma_choice_v4_real1,5e8b32ec2c33ae7f20a0b401,7,Amount of traffic,74,,,wad_att_rating,2950,,,,,2022-06-16 20:37:28,19001
55e59b81c70c7a000b2a5ad9,ma_choice_v4_real1,55e59b81c70c7a000b2a5ad9,7,Amount of traffic,-1,Very Little,A Lot,direction,2968,,,,,2022-06-16 20:37:33,19002
5da4d35c84ea7900178a366c,ma_choice_v4_real1,5da4d35c84ea7900178a366c,3,Year building was built,-1,1985,1950,direction,2671,,,,,2022-06-16 20:37:34,19003
5e8b32ec2c33ae7f20a0b401,ma_choice_v4_real1,5e8b32ec2c33ae7f20a0b401,2,Reputation of closest school,56,,,wad_att_rating,6782,,,,,2022-06-16 20:37:35,19004
5da4d35c84ea7900178a366c,ma_choice_v4_real1,5da4d35c84ea7900178a366c,2,Reputation of closest school,-1,Good,Very Bad,direction,2386,,,,,2022-06-16 20:37:44,19005
5e8b32ec2c33ae7f20a0b401,ma_choice_v4_real1,5e8b32ec2c33ae7f20a0b401,0,Noise pollution,1,,,ew_att_rating,3629,,,,,2022-06-16 20:37:48,19006
5da4d35c84ea7900178a366c,ma_choice_v4_real1,5da4d35c84ea7900178a366c,8,Size of home,-1,1200 square feet,600 square feet,direction,1621,,,,,2022-06-16 20:37:52,19007
5df66d09dc8535465a0b0bae,ma_choice_v4_real1,5df66d09dc8535465a0b0bae,2,Reputation of closest school,-1,Moderate,Bad,direction,6690,,,,,2022-06-16 20:37:55,19008
5da4d35c84ea7900178a366c,ma_choice_v4_real1,5da4d35c84ea7900178a366c,6,Quality of heat/AC system,-1,Very Good,Very Bad,direction,2394,,,,,2022-06-16 20:37:57,19009
5e8b32ec2c33ae7f20a0b401,ma_choice_v4_real1,5e8b32ec2c33ae7f20a0b401,0,Noise pollution,1,,,lex_att_rating,6295,,,,,2022-06-16 20:37:57,19010
5da4d35c84ea7900178a366c,ma_choice_v4_real1,5da4d35c84ea7900178a366c,0,Closeness to parks,-1,15 min away,30 min away,direction,2332,,,,,2022-06-16 20:38:09,19011
5df66d09dc8535465a0b0bae,ma_choice_v4_real1,5df66d09dc8535465a0b0bae,0,Closeness to parks,-1,25 min away,30 min away,direction,5481,,,,,2022-06-16 20:38:15,19012
5df66d09dc8535465a0b0bae,ma_choice_v4_real1,5df66d09dc8535465a0b0bae,8,Size of home,-1,1800 square feet,600 square feet,direction,2994,,,,,2022-06-16 20:38:27,19013
5b1f185488ee7400012b4b5c,ma_choice_v4_real1,5b1f185488ee7400012b4b5c,5,Quality of kitchen,-1,Very Good,Very Bad,direction,11704,,,,,2022-06-16 20:38:33,19014
5df66d09dc8535465a0b0bae,ma_choice_v4_real1,5df66d09dc8535465a0b0bae,3,Year building was built,-1,1985,1950,direction,2288,,,,,2022-06-16 20:38:35,19015
5df66d09dc8535465a0b0bae,ma_choice_v4_real1,5df66d09dc8535465a0b0bae,5,Quality of kitchen,-1,Very Good,Very Bad,direction,3959,,,,,2022-06-16 20:38:47,19016
5b1f185488ee7400012b4b5c,ma_choice_v4_real1,5b1f185488ee7400012b4b5c,8,Size of home,-1,1800 square feet,600 square feet,direction,4238,,,,,2022-06-16 20:38:52,19017
5df66d09dc8535465a0b0bae,ma_choice_v4_real1,5df66d09dc8535465a0b0bae,7,Amount of traffic,-1,A Little,A Lot,direction,2307,,,,,2022-06-16 20:38:57,19018
5b1f185488ee7400012b4b5c,ma_choice_v4_real1,5b1f185488ee7400012b4b5c,3,Year building was built,-1,1985,1950,direction,3620,,,,,2022-06-16 20:39:06,19019
5df66d09dc8535465a0b0bae,ma_choice_v4_real1,5df66d09dc8535465a0b0bae,1,Noise pollution,-1,Moderate,Very High,direction,4366,,,,,2022-06-16 20:39:10,19020
5df66d09dc8535465a0b0bae,ma_choice_v4_real1,5df66d09dc8535465a0b0bae,6,Quality of heat/AC system,-1,Very Good,Very Bad,direction,2371,,,,,2022-06-16 20:39:16,19021
5b1f185488ee7400012b4b5c,ma_choice_v4_real1,5b1f185488ee7400012b4b5c,1,Noise pollution,-1,Very Low,Very High,direction,3784,,,,,2022-06-16 20:39:22,19022
5df66d09dc8535465a0b0bae,ma_choice_v4_real1,5df66d09dc8535465a0b0bae,4,Size of yard,-1,600 square feet,0 square feet,direction,3511,,,,,2022-06-16 20:39:25,19023
5b1f185488ee7400012b4b5c,ma_choice_v4_real1,5b1f185488ee7400012b4b5c,6,Quality of heat/AC system,-1,Very Good,Very Bad,direction,3360,,,,,2022-06-16 20:39:31,19024
5b1f185488ee7400012b4b5c,ma_choice_v4_real1,5b1f185488ee7400012b4b5c,2,Reputation of closest school,-1,Very Good,Very Bad,direction,2938,,,,,2022-06-16 20:39:43,19025
5b1f185488ee7400012b4b5c,ma_choice_v4_real1,5b1f185488ee7400012b4b5c,7,Amount of traffic,-1,Very Little,A Lot,direction,4464,,,,,2022-06-16 20:39:57,19026
5b1f185488ee7400012b4b5c,ma_choice_v4_real1,5b1f185488ee7400012b4b5c,4,Size of yard,-1,300 square feet,0 square feet,direction,4363,,,,,2022-06-16 20:40:08,19027
60e5f1ae185cdcabc12f7d03,ma_choice_v4_real1,60e5f1ae185cdcabc12f7d03,5,Quality of kitchen,75,,,wad_att_rating,8740,,,,,2022-06-16 20:40:11,19028
60e5f1ae185cdcabc12f7d03,ma_choice_v4_real1,60e5f1ae185cdcabc12f7d03,6,Quality of heat/AC system,97,,,wad_att_rating,4948,,,,,2022-06-16 20:40:16,19029
5b1f185488ee7400012b4b5c,ma_choice_v4_real1,5b1f185488ee7400012b4b5c,0,Closeness to parks,-1,10 min away,30 min away,direction,4035,,,,,2022-06-16 20:40:22,19030
6294de1b341cd20e308d1a4a,ma_choice_v4_real1,6294de1b341cd20e308d1a4a,0,Size of home,1,,,lex_att_rating,11598,,,,,2022-06-16 20:40:26,19031
60e5f1ae185cdcabc12f7d03,ma_choice_v4_real1,60e5f1ae185cdcabc12f7d03,4,Size of yard,3,,,wad_att_rating,11004,,,,,2022-06-16 20:40:27,19032
60e5f1ae185cdcabc12f7d03,ma_choice_v4_real1,60e5f1ae185cdcabc12f7d03,0,Closeness to parks,0,,,wad_att_rating,8509,,,,,2022-06-16 20:40:36,19033
56875435369319000c26947d,ma_choice_v4_real1,56875435369319000c26947d,0,Noise pollution,1,,,ew_att_rating,13924,,,,,2022-06-16 20:40:37,19034
56875435369319000c26947d,ma_choice_v4_real1,56875435369319000c26947d,0,Amount of traffic,1,,,ew_att_rating,13924,,,,,2022-06-16 20:40:37,19035
56875435369319000c26947d,ma_choice_v4_real1,56875435369319000c26947d,0,Year building was built,1,,,ew_att_rating,13924,,,,,2022-06-16 20:40:37,19036
56875435369319000c26947d,ma_choice_v4_real1,56875435369319000c26947d,4,Size of yard,0,,,wad_att_rating,3539,,,,,2022-06-16 20:40:42,19037
6294de1b341cd20e308d1a4a,ma_choice_v4_real1,6294de1b341cd20e308d1a4a,7,Amount of traffic,75,,,wad_att_rating,5480,,,,,2022-06-16 20:40:42,19038
56875435369319000c26947d,ma_choice_v4_real1,56875435369319000c26947d,6,Quality of heat/AC system,0,,,wad_att_rating,2142,,,,,2022-06-16 20:40:44,19039
56875435369319000c26947d,ma_choice_v4_real1,56875435369319000c26947d,1,Noise pollution,75,,,wad_att_rating,3140,,,,,2022-06-16 20:40:47,19040
5c82acc04fd379001524a6ae,ma_choice_v4_real1,5c82acc04fd379001524a6ae,0,Closeness to parks,5,,,wad_att_rating,6396,,,,,2022-06-16 20:40:48,19041
56875435369319000c26947d,ma_choice_v4_real1,56875435369319000c26947d,7,Amount of traffic,76,,,wad_att_rating,2818,,,,,2022-06-16 20:40:50,19042
5c82acc04fd379001524a6ae,ma_choice_v4_real1,5c82acc04fd379001524a6ae,6,Quality of heat/AC system,5,,,wad_att_rating,3042,,,,,2022-06-16 20:40:51,19043
5df27b81acd5ce18b4bd225c,ma_choice_v4_real1,5df27b81acd5ce18b4bd225c,0,Quality of heat/AC system,1,,,lex_att_rating,7660,,,,,2022-06-16 20:40:52,19044
56875435369319000c26947d,ma_choice_v4_real1,56875435369319000c26947d,5,Quality of kitchen,0,,,wad_att_rating,3289,,,,,2022-06-16 20:40:53,19045
5c82acc04fd379001524a6ae,ma_choice_v4_real1,5c82acc04fd379001524a6ae,1,Noise pollution,7,,,wad_att_rating,2976,,,,,2022-06-16 20:40:54,19046
56875435369319000c26947d,ma_choice_v4_real1,56875435369319000c26947d,2,Reputation of closest school,0,,,wad_att_rating,2799,,,,,2022-06-16 20:40:56,19047
60e5f1ae185cdcabc12f7d03,ma_choice_v4_real1,60e5f1ae185cdcabc12f7d03,3,Year building was built,76,,,wad_att_rating,21658,,,,,2022-06-16 20:40:57,19048
5c82acc04fd379001524a6ae,ma_choice_v4_real1,5c82acc04fd379001524a6ae,3,Year building was built,24,,,wad_att_rating,3678,,,,,2022-06-16 20:40:58,19049
56875435369319000c26947d,ma_choice_v4_real1,56875435369319000c26947d,0,Closeness to parks,0,,,wad_att_rating,2314,,,,,2022-06-16 20:40:58,19050
6294de1b341cd20e308d1a4a,ma_choice_v4_real1,6294de1b341cd20e308d1a4a,1,Noise pollution,12,,,wad_att_rating,17290,,,,,2022-06-16 20:41:00,19051
56875435369319000c26947d,ma_choice_v4_real1,56875435369319000c26947d,3,Year building was built,24,,,wad_att_rating,3502,,,,,2022-06-16 20:41:02,19052
5c82acc04fd379001524a6ae,ma_choice_v4_real1,5c82acc04fd379001524a6ae,4,Size of yard,75,,,wad_att_rating,5600,,,,,2022-06-16 20:41:04,19053
56875435369319000c26947d,ma_choice_v4_real1,56875435369319000c26947d,8,Size of home,0,,,wad_att_rating,2195,,,,,2022-06-16 20:41:04,19054
6294de1b341cd20e308d1a4a,ma_choice_v4_real1,6294de1b341cd20e308d1a4a,4,Size of yard,50,,,wad_att_rating,5070,,,,,2022-06-16 20:41:05,19055
60e5f1ae185cdcabc12f7d03,ma_choice_v4_real1,60e5f1ae185cdcabc12f7d03,2,Reputation of closest school,0,,,wad_att_rating,8418,,,,,2022-06-16 20:41:06,19056
5c82acc04fd379001524a6ae,ma_choice_v4_real1,5c82acc04fd379001524a6ae,5,Quality of kitchen,25,,,wad_att_rating,5126,,,,,2022-06-16 20:41:09,19057
60e5f1ae185cdcabc12f7d03,ma_choice_v4_real1,60e5f1ae185cdcabc12f7d03,7,Amount of traffic,12,,,wad_att_rating,4020,,,,,2022-06-16 20:41:10,19058
5c82acc04fd379001524a6ae,ma_choice_v4_real1,5c82acc04fd379001524a6ae,2,Reputation of closest school,63,,,wad_att_rating,4116,,,,,2022-06-16 20:41:13,19059
56875435369319000c26947d,ma_choice_v4_real1,56875435369319000c26947d,0,Noise pollution,1,,,lex_att_rating,8935,,,,,2022-06-16 20:41:15,19060
5c82acc04fd379001524a6ae,ma_choice_v4_real1,5c82acc04fd379001524a6ae,7,Amount of traffic,8,,,wad_att_rating,2986,,,,,2022-06-16 20:41:16,19061
6294de1b341cd20e308d1a4a,ma_choice_v4_real1,6294de1b341cd20e308d1a4a,0,Closeness to parks,0,,,wad_att_rating,12553,,,,,2022-06-16 20:41:17,19062
5c82acc04fd379001524a6ae,ma_choice_v4_real1,5c82acc04fd379001524a6ae,8,Size of home,88,,,wad_att_rating,3202,,,,,2022-06-16 20:41:19,19063
5df27b81acd5ce18b4bd225c,ma_choice_v4_real1,5df27b81acd5ce18b4bd225c,7,Amount of traffic,12,,,wad_att_rating,12232,,,,,2022-06-16 20:41:25,19064
6294de1b341cd20e308d1a4a,ma_choice_v4_real1,6294de1b341cd20e308d1a4a,6,Quality of heat/AC system,75,,,wad_att_rating,9539,,,,,2022-06-16 20:41:27,19065
5df27b81acd5ce18b4bd225c,ma_choice_v4_real1,5df27b81acd5ce18b4bd225c,4,Size of yard,13,,,wad_att_rating,4813,,,,,2022-06-16 20:41:30,19066
62976e7114308ee7c69d10ae,ma_choice_v4_real1,62976e7114308ee7c69d10ae,0,Quality of kitchen,1,,,ew_att_rating,3292,,,,,2022-06-16 20:41:30,19067
6294de1b341cd20e308d1a4a,ma_choice_v4_real1,6294de1b341cd20e308d1a4a,3,Year building was built,0,,,wad_att_rating,4815,,,,,2022-06-16 20:41:32,19068
5c82acc04fd379001524a6ae,ma_choice_v4_real1,5c82acc04fd379001524a6ae,0,Size of home,1,,,lex_att_rating,5096,,,,,2022-06-16 20:41:34,19069
5df27b81acd5ce18b4bd225c,ma_choice_v4_real1,5df27b81acd5ce18b4bd225c,3,Year building was built,14,,,wad_att_rating,6501,,,,,2022-06-16 20:41:36,19070
6294de1b341cd20e308d1a4a,ma_choice_v4_real1,6294de1b341cd20e308d1a4a,2,Reputation of closest school,0,,,wad_att_rating,5782,,,,,2022-06-16 20:41:37,19071
60e5f1ae185cdcabc12f7d03,ma_choice_v4_real1,60e5f1ae185cdcabc12f7d03,1,Noise pollution,35,,,wad_att_rating,28061,,,,,2022-06-16 20:41:38,19072
5df27b81acd5ce18b4bd225c,ma_choice_v4_real1,5df27b81acd5ce18b4bd225c,1,Noise pollution,25,,,wad_att_rating,4819,,,,,2022-06-16 20:41:41,19073
62976e7114308ee7c69d10ae,ma_choice_v4_real1,62976e7114308ee7c69d10ae,1,Noise pollution,12,,,wad_att_rating,4187,,,,,2022-06-16 20:41:42,19074
60e5f1ae185cdcabc12f7d03,ma_choice_v4_real1,60e5f1ae185cdcabc12f7d03,8,Size of home,75,,,wad_att_rating,4479,,,,,2022-06-16 20:41:42,19075
6294de1b341cd20e308d1a4a,ma_choice_v4_real1,6294de1b341cd20e308d1a4a,8,Size of home,75,,,wad_att_rating,7579,,,,,2022-06-16 20:41:45,19076
62976e7114308ee7c69d10ae,ma_choice_v4_real1,62976e7114308ee7c69d10ae,8,Size of home,37,,,wad_att_rating,3537,,,,,2022-06-16 20:41:45,19077
5df27b81acd5ce18b4bd225c,ma_choice_v4_real1,5df27b81acd5ce18b4bd225c,0,Closeness to parks,12,,,wad_att_rating,5401,,,,,2022-06-16 20:41:47,19078
62976e7114308ee7c69d10ae,ma_choice_v4_real1,62976e7114308ee7c69d10ae,7,Amount of traffic,12,,,wad_att_rating,2945,,,,,2022-06-16 20:41:48,19079
5e8b32ec2c33ae7f20a0b401,ma_choice_v4_real1,5e8b32ec2c33ae7f20a0b401,6,Quality of heat/AC system,-1,Moderate,Moderate,direction,16750,,,,,2022-06-16 20:41:48,19080
5df27b81acd5ce18b4bd225c,ma_choice_v4_real1,5df27b81acd5ce18b4bd225c,5,Quality of kitchen,49,,,wad_att_rating,4934,,,,,2022-06-16 20:41:51,19081
6294de1b341cd20e308d1a4a,ma_choice_v4_real1,6294de1b341cd20e308d1a4a,5,Quality of kitchen,50,,,wad_att_rating,7414,,,,,2022-06-16 20:41:53,19082
62976e7114308ee7c69d10ae,ma_choice_v4_real1,62976e7114308ee7c69d10ae,2,Reputation of closest school,0,,,wad_att_rating,5535,,,,,2022-06-16 20:41:54,19083
62976e7114308ee7c69d10ae,ma_choice_v4_real1,62976e7114308ee7c69d10ae,3,Year building was built,38,,,wad_att_rating,3572,,,,,2022-06-16 20:41:57,19084
5df27b81acd5ce18b4bd225c,ma_choice_v4_real1,5df27b81acd5ce18b4bd225c,2,Reputation of closest school,23,,,wad_att_rating,5911,,,,,2022-06-16 20:41:58,19085
62976e7114308ee7c69d10ae,ma_choice_v4_real1,62976e7114308ee7c69d10ae,4,Size of yard,25,,,wad_att_rating,3303,,,,,2022-06-16 20:42:01,19086
60e5f1ae185cdcabc12f7d03,ma_choice_v4_real1,60e5f1ae185cdcabc12f7d03,0,Year building was built,1,,,lex_att_rating,9223,,,,,2022-06-16 20:42:01,19087
5c82acc04fd379001524a6ae,ma_choice_v4_real1,5c82acc04fd379001524a6ae,0,Size of yard,1,,,ew_att_rating,9731,,,,,2022-06-16 20:42:03,19088
5c82acc04fd379001524a6ae,ma_choice_v4_real1,5c82acc04fd379001524a6ae,0,Reputation of closest school,1,,,ew_att_rating,9731,,,,,2022-06-16 20:42:03,19089
5c82acc04fd379001524a6ae,ma_choice_v4_real1,5c82acc04fd379001524a6ae,0,Size of home,1,,,ew_att_rating,9731,,,,,2022-06-16 20:42:03,19090
5df27b81acd5ce18b4bd225c,ma_choice_v4_real1,5df27b81acd5ce18b4bd225c,6,Quality of heat/AC system,100,,,wad_att_rating,6277,,,,,2022-06-16 20:42:04,19091
62976e7114308ee7c69d10ae,ma_choice_v4_real1,62976e7114308ee7c69d10ae,5,Quality of kitchen,100,,,wad_att_rating,4089,,,,,2022-06-16 20:42:05,19092
5df27b81acd5ce18b4bd225c,ma_choice_v4_real1,5df27b81acd5ce18b4bd225c,8,Size of home,24,,,wad_att_rating,3748,,,,,2022-06-16 20:42:07,19093
62976e7114308ee7c69d10ae,ma_choice_v4_real1,62976e7114308ee7c69d10ae,6,Quality of heat/AC system,75,,,wad_att_rating,3631,,,,,2022-06-16 20:42:08,19094
62976e7114308ee7c69d10ae,ma_choice_v4_real1,62976e7114308ee7c69d10ae,0,Closeness to parks,12,,,wad_att_rating,2767,,,,,2022-06-16 20:42:11,19095
5e8b32ec2c33ae7f20a0b401,ma_choice_v4_real1,5e8b32ec2c33ae7f20a0b401,1,Noise pollution,-1,Very High,Very Low,direction,10190,,,,,2022-06-16 20:42:17,19096
62976e7114308ee7c69d10ae,ma_choice_v4_real1,62976e7114308ee7c69d10ae,0,Quality of kitchen,1,,,lex_att_rating,2315,,,,,2022-06-16 20:42:19,19097
5e8b32ec2c33ae7f20a0b401,ma_choice_v4_real1,5e8b32ec2c33ae7f20a0b401,2,Reputation of closest school,-1,Moderate,Bad,direction,4070,,,,,2022-06-16 20:42:25,19098
6294de1b341cd20e308d1a4a,ma_choice_v4_real1,6294de1b341cd20e308d1a4a,0,Quality of kitchen,1,,,ew_att_rating,20703,,,,,2022-06-16 20:42:33,19099
6294de1b341cd20e308d1a4a,ma_choice_v4_real1,6294de1b341cd20e308d1a4a,0,Amount of traffic,1,,,ew_att_rating,20703,,,,,2022-06-16 20:42:33,19100
6294de1b341cd20e308d1a4a,ma_choice_v4_real1,6294de1b341cd20e308d1a4a,0,Quality of heat/AC system,1,,,ew_att_rating,20703,,,,,2022-06-16 20:42:33,19101
6294de1b341cd20e308d1a4a,ma_choice_v4_real1,6294de1b341cd20e308d1a4a,0,Noise pollution,1,,,ew_att_rating,20703,,,,,2022-06-16 20:42:33,19102
6294de1b341cd20e308d1a4a,ma_choice_v4_real1,6294de1b341cd20e308d1a4a,0,Size of yard,1,,,ew_att_rating,20703,,,,,2022-06-16 20:42:33,19103
6294de1b341cd20e308d1a4a,ma_choice_v4_real1,6294de1b341cd20e308d1a4a,0,Size of home,1,,,ew_att_rating,20703,,,,,2022-06-16 20:42:33,19104
5e8b32ec2c33ae7f20a0b401,ma_choice_v4_real1,5e8b32ec2c33ae7f20a0b401,8,Size of home,-1,1200 square feet,600 square feet,direction,4230,,,,,2022-06-16 20:42:34,19105
5e8b32ec2c33ae7f20a0b401,ma_choice_v4_real1,5e8b32ec2c33ae7f20a0b401,0,Closeness to parks,-1,20 min away,30 min away,direction,3518,,,,,2022-06-16 20:42:45,19106
5df27b81acd5ce18b4bd225c,ma_choice_v4_real1,5df27b81acd5ce18b4bd225c,0,Quality of kitchen,1,,,ew_att_rating,19504,,,,,2022-06-16 20:42:50,19107
5df27b81acd5ce18b4bd225c,ma_choice_v4_real1,5df27b81acd5ce18b4bd225c,0,Quality of heat/AC system,1,,,ew_att_rating,19504,,,,,2022-06-16 20:42:50,19108
60e5f1ae185cdcabc12f7d03,ma_choice_v4_real1,60e5f1ae185cdcabc12f7d03,0,Size of home,1,,,ew_att_rating,44668,,,,,2022-06-16 20:42:54,19109
60e5f1ae185cdcabc12f7d03,ma_choice_v4_real1,60e5f1ae185cdcabc12f7d03,0,Year building was built,1,,,ew_att_rating,44668,,,,,2022-06-16 20:42:54,19110
60e5f1ae185cdcabc12f7d03,ma_choice_v4_real1,60e5f1ae185cdcabc12f7d03,0,Quality of heat/AC system,1,,,ew_att_rating,44668,,,,,2022-06-16 20:42:54,19111
5e8b32ec2c33ae7f20a0b401,ma_choice_v4_real1,5e8b32ec2c33ae7f20a0b401,3,Year building was built,-1,1985,2020,direction,3830,,,,,2022-06-16 20:42:54,19112
56875435369319000c26947d,ma_choice_v4_real1,56875435369319000c26947d,1,Noise pollution,-1,Very Low,Very High,direction,1740,,,,,2022-06-16 20:42:59,19113
5e8b32ec2c33ae7f20a0b401,ma_choice_v4_real1,5e8b32ec2c33ae7f20a0b401,5,Quality of kitchen,-1,Moderate,Bad,direction,2574,,,,,2022-06-16 20:43:01,19114
56875435369319000c26947d,ma_choice_v4_real1,56875435369319000c26947d,5,Quality of kitchen,-1,Moderate,Moderate,direction,1174,,,,,2022-06-16 20:43:02,19115
62976e7114308ee7c69d10ae,ma_choice_v4_real1,62976e7114308ee7c69d10ae,1,Noise pollution,-1,Very Low,Very High,direction,2808,,,,,2022-06-16 20:43:02,19116
56875435369319000c26947d,ma_choice_v4_real1,56875435369319000c26947d,8,Size of home,-1,1200 square feet,600 square feet,direction,1704,,,,,2022-06-16 20:43:06,19117
62976e7114308ee7c69d10ae,ma_choice_v4_real1,62976e7114308ee7c69d10ae,3,Year building was built,-1,2020,1950,direction,1904,,,,,2022-06-16 20:43:07,19118
5e8b32ec2c33ae7f20a0b401,ma_choice_v4_real1,5e8b32ec2c33ae7f20a0b401,4,Size of yard,-1,300 square feet,0 square feet,direction,3446,,,,,2022-06-16 20:43:09,19119
56875435369319000c26947d,ma_choice_v4_real1,56875435369319000c26947d,2,Reputation of closest school,-1,Moderate,Moderate,direction,936,,,,,2022-06-16 20:43:10,19120
62976e7114308ee7c69d10ae,ma_choice_v4_real1,62976e7114308ee7c69d10ae,0,Closeness to parks,-1,10 min away,30 min away,direction,2651,,,,,2022-06-16 20:43:13,19121
56875435369319000c26947d,ma_choice_v4_real1,56875435369319000c26947d,7,Amount of traffic,-1,Very Little,A Lot,direction,3365,,,,,2022-06-16 20:43:16,19122
56875435369319000c26947d,ma_choice_v4_real1,56875435369319000c26947d,6,Quality of heat/AC system,-1,Moderate,Moderate,direction,996,,,,,2022-06-16 20:43:18,19123
62976e7114308ee7c69d10ae,ma_choice_v4_real1,62976e7114308ee7c69d10ae,7,Amount of traffic,-1,Very Little,A Lot,direction,3008,,,,,2022-06-16 20:43:18,19124
5e8b32ec2c33ae7f20a0b401,ma_choice_v4_real1,5e8b32ec2c33ae7f20a0b401,7,Amount of traffic,-1,A Little,A Lot,direction,3158,,,,,2022-06-16 20:43:19,19125
56875435369319000c26947d,ma_choice_v4_real1,56875435369319000c26947d,0,Closeness to parks,-1,20 min away,20 min away,direction,1049,,,,,2022-06-16 20:43:22,19126
62976e7114308ee7c69d10ae,ma_choice_v4_real1,62976e7114308ee7c69d10ae,5,Quality of kitchen,-1,Very Good,Very Bad,direction,2399,,,,,2022-06-16 20:43:24,19127
56875435369319000c26947d,ma_choice_v4_real1,56875435369319000c26947d,3,Year building was built,-1,1985,1950,direction,2247,,,,,2022-06-16 20:43:26,19128
62976e7114308ee7c69d10ae,ma_choice_v4_real1,62976e7114308ee7c69d10ae,6,Quality of heat/AC system,-1,Very Good,Very Bad,direction,1839,,,,,2022-06-16 20:43:28,19129
56875435369319000c26947d,ma_choice_v4_real1,56875435369319000c26947d,4,Size of yard,-1,0 square feet,0 square feet,direction,844,,,,,2022-06-16 20:43:32,19130
62976e7114308ee7c69d10ae,ma_choice_v4_real1,62976e7114308ee7c69d10ae,4,Size of yard,-1,600 square feet,0 square feet,direction,1841,,,,,2022-06-16 20:43:33,19131
570d30d942a1db000fc4cf87,ma_choice_v4_real1,570d30d942a1db000fc4cf87,0,Quality of heat/AC system,1,,,lex_att_rating,7646,,,,,2022-06-16 20:43:34,19132
62976e7114308ee7c69d10ae,ma_choice_v4_real1,62976e7114308ee7c69d10ae,8,Size of home,-1,1800 square feet,600 square feet,direction,1959,,,,,2022-06-16 20:43:36,19133
62976e7114308ee7c69d10ae,ma_choice_v4_real1,62976e7114308ee7c69d10ae,2,Reputation of closest school,-1,Moderate,Moderate,direction,1520,,,,,2022-06-16 20:43:42,19134
570d30d942a1db000fc4cf87,ma_choice_v4_real1,570d30d942a1db000fc4cf87,0,Quality of kitchen,1,,,ew_att_rating,22322,,,,,2022-06-16 20:44:00,19135
570d30d942a1db000fc4cf87,ma_choice_v4_real1,570d30d942a1db000fc4cf87,0,Reputation of closest school,1,,,ew_att_rating,22322,,,,,2022-06-16 20:44:00,19136
570d30d942a1db000fc4cf87,ma_choice_v4_real1,570d30d942a1db000fc4cf87,0,Quality of heat/AC system,1,,,ew_att_rating,22322,,,,,2022-06-16 20:44:00,19137
6294de1b341cd20e308d1a4a,ma_choice_v4_real1,6294de1b341cd20e308d1a4a,1,Noise pollution,-1,Very Low,Very High,direction,8230,,,,,2022-06-16 20:44:05,19138
5f0160c161fa112b27e788f6,ma_choice_v4_real1,5f0160c161fa112b27e788f6,0,Quality of heat/AC system,1,,,ew_att_rating,8667,,,,,2022-06-16 20:44:14,19139
5f0160c161fa112b27e788f6,ma_choice_v4_real1,5f0160c161fa112b27e788f6,0,Quality of kitchen,1,,,ew_att_rating,8667,,,,,2022-06-16 20:44:14,19140
5f0160c161fa112b27e788f6,ma_choice_v4_real1,5f0160c161fa112b27e788f6,0,Size of yard,1,,,ew_att_rating,8667,,,,,2022-06-16 20:44:14,19141
5f0160c161fa112b27e788f6,ma_choice_v4_real1,5f0160c161fa112b27e788f6,0,Noise pollution,1,,,ew_att_rating,8667,,,,,2022-06-16 20:44:14,19142
6294de1b341cd20e308d1a4a,ma_choice_v4_real1,6294de1b341cd20e308d1a4a,7,Amount of traffic,-1,Very Little,A Lot,direction,2909,,,,,2022-06-16 20:44:15,19143
570d30d942a1db000fc4cf87,ma_choice_v4_real1,570d30d942a1db000fc4cf87,3,Year building was built,24,,,wad_att_rating,6949,,,,,2022-06-16 20:44:18,19144
5f0160c161fa112b27e788f6,ma_choice_v4_real1,5f0160c161fa112b27e788f6,1,Noise pollution,50,,,wad_att_rating,6402,,,,,2022-06-16 20:44:23,19145
570d30d942a1db000fc4cf87,ma_choice_v4_real1,570d30d942a1db000fc4cf87,5,Quality of kitchen,74,,,wad_att_rating,6144,,,,,2022-06-16 20:44:24,19146
570d30d942a1db000fc4cf87,ma_choice_v4_real1,570d30d942a1db000fc4cf87,4,Size of yard,0,,,wad_att_rating,3863,,,,,2022-06-16 20:44:28,19147
5f0160c161fa112b27e788f6,ma_choice_v4_real1,5f0160c161fa112b27e788f6,5,Quality of kitchen,76,,,wad_att_rating,6746,,,,,2022-06-16 20:44:30,19148
570d30d942a1db000fc4cf87,ma_choice_v4_real1,570d30d942a1db000fc4cf87,0,Closeness to parks,0,,,wad_att_rating,2685,,,,,2022-06-16 20:44:31,19149
5f0160c161fa112b27e788f6,ma_choice_v4_real1,5f0160c161fa112b27e788f6,8,Size of home,24,,,wad_att_rating,4312,,,,,2022-06-16 20:44:34,19150
570d30d942a1db000fc4cf87,ma_choice_v4_real1,570d30d942a1db000fc4cf87,1,Noise pollution,49,,,wad_att_rating,4240,,,,,2022-06-16 20:44:35,19151
6294de1b341cd20e308d1a4a,ma_choice_v4_real1,6294de1b341cd20e308d1a4a,4,Size of yard,-1,300 square feet,0 square feet,direction,4149,,,,,2022-06-16 20:44:36,19152
570d30d942a1db000fc4cf87,ma_choice_v4_real1,570d30d942a1db000fc4cf87,7,Amount of traffic,50,,,wad_att_rating,3472,,,,,2022-06-16 20:44:38,19153
5f0160c161fa112b27e788f6,ma_choice_v4_real1,5f0160c161fa112b27e788f6,0,Closeness to parks,0,,,wad_att_rating,4512,,,,,2022-06-16 20:44:39,19154
570d30d942a1db000fc4cf87,ma_choice_v4_real1,570d30d942a1db000fc4cf87,8,Size of home,1,,,wad_att_rating,4134,,,,,2022-06-16 20:44:42,19155
5f0160c161fa112b27e788f6,ma_choice_v4_real1,5f0160c161fa112b27e788f6,4,Size of yard,74,,,wad_att_rating,3621,,,,,2022-06-16 20:44:42,19156
6294de1b341cd20e308d1a4a,ma_choice_v4_real1,6294de1b341cd20e308d1a4a,0,Closeness to parks,-1,10 min away,30 min away,direction,2504,,,,,2022-06-16 20:44:44,19157
5f0160c161fa112b27e788f6,ma_choice_v4_real1,5f0160c161fa112b27e788f6,6,Quality of heat/AC system,88,,,wad_att_rating,3535,,,,,2022-06-16 20:44:46,19158
570d30d942a1db000fc4cf87,ma_choice_v4_real1,570d30d942a1db000fc4cf87,2,Reputation of closest school,73,,,wad_att_rating,4211,,,,,2022-06-16 20:44:47,19159
5f0160c161fa112b27e788f6,ma_choice_v4_real1,5f0160c161fa112b27e788f6,2,Reputation of closest school,0,,,wad_att_rating,2201,,,,,2022-06-16 20:44:48,19160
5f0160c161fa112b27e788f6,ma_choice_v4_real1,5f0160c161fa112b27e788f6,7,Amount of traffic,13,,,wad_att_rating,3003,,,,,2022-06-16 20:44:51,19161
6294de1b341cd20e308d1a4a,ma_choice_v4_real1,6294de1b341cd20e308d1a4a,8,Size of home,-1,1800 square feet,600 square feet,direction,2701,,,,,2022-06-16 20:44:52,19162
5f0160c161fa112b27e788f6,ma_choice_v4_real1,5f0160c161fa112b27e788f6,3,Year building was built,0,,,wad_att_rating,2142,,,,,2022-06-16 20:44:53,19163
570d30d942a1db000fc4cf87,ma_choice_v4_real1,570d30d942a1db000fc4cf87,6,Quality of heat/AC system,74,,,wad_att_rating,8317,,,,,2022-06-16 20:44:55,19164
5f0160c161fa112b27e788f6,ma_choice_v4_real1,5f0160c161fa112b27e788f6,0,Quality of heat/AC system,1,,,lex_att_rating,3284,,,,,2022-06-16 20:44:59,19165
6294de1b341cd20e308d1a4a,ma_choice_v4_real1,6294de1b341cd20e308d1a4a,6,Quality of heat/AC system,-1,Very Good,Very Bad,direction,2601,,,,,2022-06-16 20:44:59,19166
5b2890f10ec82d0001d24b61,ma_choice_v4_real1,5b2890f10ec82d0001d24b61,0,Size of yard,1,,,lex_att_rating,4300,,,,,2022-06-16 20:45:02,19167
6294de1b341cd20e308d1a4a,ma_choice_v4_real1,6294de1b341cd20e308d1a4a,3,Year building was built,-1,2020,1950,direction,2287,,,,,2022-06-16 20:45:10,19168
6294de1b341cd20e308d1a4a,ma_choice_v4_real1,6294de1b341cd20e308d1a4a,2,Reputation of closest school,-1,Very Good,Very Bad,direction,2977,,,,,2022-06-16 20:45:17,19169
5b2890f10ec82d0001d24b61,ma_choice_v4_real1,5b2890f10ec82d0001d24b61,0,Size of home,1,,,ew_att_rating,11435,,,,,2022-06-16 20:45:18,19170
5b2890f10ec82d0001d24b61,ma_choice_v4_real1,5b2890f10ec82d0001d24b61,0,Size of yard,1,,,ew_att_rating,11435,,,,,2022-06-16 20:45:18,19171
5b2890f10ec82d0001d24b61,ma_choice_v4_real1,5b2890f10ec82d0001d24b61,0,Quality of kitchen,1,,,ew_att_rating,11435,,,,,2022-06-16 20:45:18,19172
60e5f1ae185cdcabc12f7d03,ma_choice_v4_real1,60e5f1ae185cdcabc12f7d03,4,Size of yard,-1,300 square feet,300 square feet,direction,6201,,,,,2022-06-16 20:45:23,19173
6294de1b341cd20e308d1a4a,ma_choice_v4_real1,6294de1b341cd20e308d1a4a,5,Quality of kitchen,-1,Very Good,Very Bad,direction,2859,,,,,2022-06-16 20:45:24,19174
5b2890f10ec82d0001d24b61,ma_choice_v4_real1,5b2890f10ec82d0001d24b61,7,Amount of traffic,52,,,wad_att_rating,9126,,,,,2022-06-16 20:45:30,19175
5b2890f10ec82d0001d24b61,ma_choice_v4_real1,5b2890f10ec82d0001d24b61,8,Size of home,63,,,wad_att_rating,4133,,,,,2022-06-16 20:45:34,19176
60e5f1ae185cdcabc12f7d03,ma_choice_v4_real1,60e5f1ae185cdcabc12f7d03,3,Year building was built,-1,2020,1950,direction,7141,,,,,2022-06-16 20:45:34,19177
5b2890f10ec82d0001d24b61,ma_choice_v4_real1,5b2890f10ec82d0001d24b61,6,Quality of heat/AC system,76,,,wad_att_rating,4315,,,,,2022-06-16 20:45:38,19178
5b2890f10ec82d0001d24b61,ma_choice_v4_real1,5b2890f10ec82d0001d24b61,0,Closeness to parks,50,,,wad_att_rating,3332,,,,,2022-06-16 20:45:42,19179
5b2890f10ec82d0001d24b61,ma_choice_v4_real1,5b2890f10ec82d0001d24b61,1,Noise pollution,49,,,wad_att_rating,4196,,,,,2022-06-16 20:45:46,19180
60e5f1ae185cdcabc12f7d03,ma_choice_v4_real1,60e5f1ae185cdcabc12f7d03,5,Quality of kitchen,-1,Very Good,Very Bad,direction,6039,,,,,2022-06-16 20:45:49,19181
5b2890f10ec82d0001d24b61,ma_choice_v4_real1,5b2890f10ec82d0001d24b61,4,Size of yard,76,,,wad_att_rating,3984,,,,,2022-06-16 20:45:50,19182
5b2890f10ec82d0001d24b61,ma_choice_v4_real1,5b2890f10ec82d0001d24b61,3,Year building was built,50,,,wad_att_rating,4123,,,,,2022-06-16 20:45:54,19183
5b2890f10ec82d0001d24b61,ma_choice_v4_real1,5b2890f10ec82d0001d24b61,5,Quality of kitchen,86,,,wad_att_rating,4292,,,,,2022-06-16 20:45:58,19184
60e5f1ae185cdcabc12f7d03,ma_choice_v4_real1,60e5f1ae185cdcabc12f7d03,1,Noise pollution,-1,Very Low,Very High,direction,4689,,,,,2022-06-16 20:46:00,19185
5b2890f10ec82d0001d24b61,ma_choice_v4_real1,5b2890f10ec82d0001d24b61,2,Reputation of closest school,49,,,wad_att_rating,5370,,,,,2022-06-16 20:46:04,19186
60e5f1ae185cdcabc12f7d03,ma_choice_v4_real1,60e5f1ae185cdcabc12f7d03,6,Quality of heat/AC system,-1,Very Good,Very Bad,direction,3958,,,,,2022-06-16 20:46:10,19187
60e5f1ae185cdcabc12f7d03,ma_choice_v4_real1,60e5f1ae185cdcabc12f7d03,8,Size of home,-1,1800 square feet,600 square feet,direction,5606,,,,,2022-06-16 20:46:25,19188
60e5f1ae185cdcabc12f7d03,ma_choice_v4_real1,60e5f1ae185cdcabc12f7d03,7,Amount of traffic,-1,Very Little,Very Little,direction,13624,,,,,2022-06-16 20:46:44,19189
5b2890f10ec82d0001d24b61,ma_choice_v4_real1,5b2890f10ec82d0001d24b61,1,Noise pollution,-1,Low,Low,direction,6571,,,,,2022-06-16 20:46:45,19190
60e5f1ae185cdcabc12f7d03,ma_choice_v4_real1,60e5f1ae185cdcabc12f7d03,2,Reputation of closest school,-1,Very Good,Very Bad,direction,5237,,,,,2022-06-16 20:46:53,19191
5b2890f10ec82d0001d24b61,ma_choice_v4_real1,5b2890f10ec82d0001d24b61,7,Amount of traffic,-1,A Little,A Little,direction,4014,,,,,2022-06-16 20:46:53,19192
5b2890f10ec82d0001d24b61,ma_choice_v4_real1,5b2890f10ec82d0001d24b61,0,Closeness to parks,-1,15 min away,15 min away,direction,3476,,,,,2022-06-16 20:47:03,19193
60e5f1ae185cdcabc12f7d03,ma_choice_v4_real1,60e5f1ae185cdcabc12f7d03,0,Closeness to parks,-1,10 min away,30 min away,direction,5776,,,,,2022-06-16 20:47:14,19194
5b2890f10ec82d0001d24b61,ma_choice_v4_real1,5b2890f10ec82d0001d24b61,6,Quality of heat/AC system,-1,Good,Very Bad,direction,5480,,,,,2022-06-16 20:47:15,19195
60fdcc2afba2a30113dd5b1f,ma_choice_v4_real1,60fdcc2afba2a30113dd5b1f,7,Amount of traffic,4,,,wad_att_rating,4092,,,,,2022-06-16 20:47:18,19196
60fdcc2afba2a30113dd5b1f,ma_choice_v4_real1,60fdcc2afba2a30113dd5b1f,0,Closeness to parks,24,,,wad_att_rating,3062,,,,,2022-06-16 20:47:22,19197
60fdcc2afba2a30113dd5b1f,ma_choice_v4_real1,60fdcc2afba2a30113dd5b1f,1,Noise pollution,2,,,wad_att_rating,2770,,,,,2022-06-16 20:47:24,19198
5b2890f10ec82d0001d24b61,ma_choice_v4_real1,5b2890f10ec82d0001d24b61,8,Size of home,-1,1200 square feet,1200 square feet,direction,4502,,,,,2022-06-16 20:47:26,19199
60fdcc2afba2a30113dd5b1f,ma_choice_v4_real1,60fdcc2afba2a30113dd5b1f,6,Quality of heat/AC system,49,,,wad_att_rating,4593,,,,,2022-06-16 20:47:29,19200
60fdcc2afba2a30113dd5b1f,ma_choice_v4_real1,60fdcc2afba2a30113dd5b1f,4,Size of yard,42,,,wad_att_rating,3414,,,,,2022-06-16 20:47:32,19201
5b2890f10ec82d0001d24b61,ma_choice_v4_real1,5b2890f10ec82d0001d24b61,3,Year building was built,-1,1950,2020,direction,6960,,,,,2022-06-16 20:47:37,19202
60fdcc2afba2a30113dd5b1f,ma_choice_v4_real1,60fdcc2afba2a30113dd5b1f,5,Quality of kitchen,75,,,wad_att_rating,5412,,,,,2022-06-16 20:47:38,19203
60fdcc2afba2a30113dd5b1f,ma_choice_v4_real1,60fdcc2afba2a30113dd5b1f,2,Reputation of closest school,8,,,wad_att_rating,3340,,,,,2022-06-16 20:47:41,19204
5b2890f10ec82d0001d24b61,ma_choice_v4_real1,5b2890f10ec82d0001d24b61,4,Size of yard,-1,300 square feet,0 square feet,direction,3546,,,,,2022-06-16 20:47:44,19205
60fdcc2afba2a30113dd5b1f,ma_choice_v4_real1,60fdcc2afba2a30113dd5b1f,3,Year building was built,37,,,wad_att_rating,3857,,,,,2022-06-16 20:47:45,19206
5e3309ad239ceb2d47d47c4a,ma_choice_v4_real1,5e3309ad239ceb2d47d47c4a,0,Size of home,1,,,lex_att_rating,11021,,,,,2022-06-16 20:47:46,19207
60fdab454b8c00448c10fa27,ma_choice_v4_real1,60fdab454b8c00448c10fa27,3,Year building was built,0,,,wad_att_rating,4420,,,,,2022-06-16 20:47:47,19208
60fdcc2afba2a30113dd5b1f,ma_choice_v4_real1,60fdcc2afba2a30113dd5b1f,8,Size of home,87,,,wad_att_rating,4848,,,,,2022-06-16 20:47:50,19209
60fdab454b8c00448c10fa27,ma_choice_v4_real1,60fdab454b8c00448c10fa27,1,Noise pollution,81,,,wad_att_rating,6804,,,,,2022-06-16 20:47:54,19210
5b2890f10ec82d0001d24b61,ma_choice_v4_real1,5b2890f10ec82d0001d24b61,2,Reputation of closest school,-1,Very Good,Very Bad,direction,3001,,,,,2022-06-16 20:47:55,19211
60fdab454b8c00448c10fa27,ma_choice_v4_real1,60fdab454b8c00448c10fa27,6,Quality of heat/AC system,12,,,wad_att_rating,3437,,,,,2022-06-16 20:47:57,19212
5bf9b46ccad1240001e8a496,ma_choice_v4_real1,5bf9b46ccad1240001e8a496,0,Reputation of closest school,1,,,ew_att_rating,9890,,,,,2022-06-16 20:48:01,19213
5bf9b46ccad1240001e8a496,ma_choice_v4_real1,5bf9b46ccad1240001e8a496,0,Quality of heat/AC system,1,,,ew_att_rating,9890,,,,,2022-06-16 20:48:01,19214
60fdab454b8c00448c10fa27,ma_choice_v4_real1,60fdab454b8c00448c10fa27,0,Closeness to parks,12,,,wad_att_rating,4151,,,,,2022-06-16 20:48:02,19215
5b2890f10ec82d0001d24b61,ma_choice_v4_real1,5b2890f10ec82d0001d24b61,5,Quality of kitchen,-1,Very Good,Very Bad,direction,3592,,,,,2022-06-16 20:48:03,19216
5e3309ad239ceb2d47d47c4a,ma_choice_v4_real1,5e3309ad239ceb2d47d47c4a,0,Amount of traffic,1,,,ew_att_rating,13055,,,,,2022-06-16 20:48:04,19217
5e3309ad239ceb2d47d47c4a,ma_choice_v4_real1,5e3309ad239ceb2d47d47c4a,0,Noise pollution,1,,,ew_att_rating,13055,,,,,2022-06-16 20:48:04,19218
5e3309ad239ceb2d47d47c4a,ma_choice_v4_real1,5e3309ad239ceb2d47d47c4a,0,Size of yard,1,,,ew_att_rating,13055,,,,,2022-06-16 20:48:04,19219
5e3309ad239ceb2d47d47c4a,ma_choice_v4_real1,5e3309ad239ceb2d47d47c4a,0,Size of home,1,,,ew_att_rating,13055,,,,,2022-06-16 20:48:04,19220
5e3309ad239ceb2d47d47c4a,ma_choice_v4_real1,5e3309ad239ceb2d47d47c4a,0,Quality of kitchen,1,,,ew_att_rating,13055,,,,,2022-06-16 20:48:04,19221
60fdcc2afba2a30113dd5b1f,ma_choice_v4_real1,60fdcc2afba2a30113dd5b1f,0,Quality of heat/AC system,1,,,ew_att_rating,12053,,,,,2022-06-16 20:48:04,19222
60fdcc2afba2a30113dd5b1f,ma_choice_v4_real1,60fdcc2afba2a30113dd5b1f,0,Quality of kitchen,1,,,ew_att_rating,12053,,,,,2022-06-16 20:48:04,19223
60fdcc2afba2a30113dd5b1f,ma_choice_v4_real1,60fdcc2afba2a30113dd5b1f,0,Size of home,1,,,ew_att_rating,12053,,,,,2022-06-16 20:48:04,19224
60fdab454b8c00448c10fa27,ma_choice_v4_real1,60fdab454b8c00448c10fa27,7,Amount of traffic,82,,,wad_att_rating,4268,,,,,2022-06-16 20:48:06,19225
60fdab454b8c00448c10fa27,ma_choice_v4_real1,60fdab454b8c00448c10fa27,4,Size of yard,75,,,wad_att_rating,3315,,,,,2022-06-16 20:48:09,19226
60fdcc2afba2a30113dd5b1f,ma_choice_v4_real1,60fdcc2afba2a30113dd5b1f,0,Size of home,1,,,lex_att_rating,3539,,,,,2022-06-16 20:48:10,19227
60fdab454b8c00448c10fa27,ma_choice_v4_real1,60fdab454b8c00448c10fa27,2,Reputation of closest school,0,,,wad_att_rating,3778,,,,,2022-06-16 20:48:13,19228
5e3309ad239ceb2d47d47c4a,ma_choice_v4_real1,5e3309ad239ceb2d47d47c4a,6,Quality of heat/AC system,50,,,wad_att_rating,5448,,,,,2022-06-16 20:48:14,19229
60fdab454b8c00448c10fa27,ma_choice_v4_real1,60fdab454b8c00448c10fa27,5,Quality of kitchen,37,,,wad_att_rating,3832,,,,,2022-06-16 20:48:17,19230
5bf9b46ccad1240001e8a496,ma_choice_v4_real1,5bf9b46ccad1240001e8a496,0,Reputation of closest school,1,,,lex_att_rating,4901,,,,,2022-06-16 20:48:17,19231
5e3309ad239ceb2d47d47c4a,ma_choice_v4_real1,5e3309ad239ceb2d47d47c4a,0,Closeness to parks,24,,,wad_att_rating,4152,,,,,2022-06-16 20:48:18,19232
60fdab454b8c00448c10fa27,ma_choice_v4_real1,60fdab454b8c00448c10fa27,8,Size of home,100,,,wad_att_rating,3080,,,,,2022-06-16 20:48:20,19233
5e3309ad239ceb2d47d47c4a,ma_choice_v4_real1,5e3309ad239ceb2d47d47c4a,4,Size of yard,87,,,wad_att_rating,4808,,,,,2022-06-16 20:48:23,19234
5e3309ad239ceb2d47d47c4a,ma_choice_v4_real1,5e3309ad239ceb2d47d47c4a,1,Noise pollution,87,,,wad_att_rating,3976,,,,,2022-06-16 20:48:27,19235
5e3309ad239ceb2d47d47c4a,ma_choice_v4_real1,5e3309ad239ceb2d47d47c4a,3,Year building was built,36,,,wad_att_rating,4306,,,,,2022-06-16 20:48:31,19236
5bf9b46ccad1240001e8a496,ma_choice_v4_real1,5bf9b46ccad1240001e8a496,4,Size of yard,0,,,wad_att_rating,4221,,,,,2022-06-16 20:48:33,19237
60fdab454b8c00448c10fa27,ma_choice_v4_real1,60fdab454b8c00448c10fa27,0,Size of home,1,,,lex_att_rating,4981,,,,,2022-06-16 20:48:34,19238
5e3309ad239ceb2d47d47c4a,ma_choice_v4_real1,5e3309ad239ceb2d47d47c4a,8,Size of home,87,,,wad_att_rating,3344,,,,,2022-06-16 20:48:34,19239
5bf9b46ccad1240001e8a496,ma_choice_v4_real1,5bf9b46ccad1240001e8a496,6,Quality of heat/AC system,75,,,wad_att_rating,5359,,,,,2022-06-16 20:48:39,19240
580a494da38f4a00012ebfdc,ma_choice_v4_real1,580a494da38f4a00012ebfdc,4,Size of yard,24,,,wad_att_rating,16006,,,,,2022-06-16 20:48:39,19241
5e3309ad239ceb2d47d47c4a,ma_choice_v4_real1,5e3309ad239ceb2d47d47c4a,2,Reputation of closest school,12,,,wad_att_rating,5199,,,,,2022-06-16 20:48:40,19242
5e3309ad239ceb2d47d47c4a,ma_choice_v4_real1,5e3309ad239ceb2d47d47c4a,7,Amount of traffic,87,,,wad_att_rating,4031,,,,,2022-06-16 20:48:44,19243
5bf9b46ccad1240001e8a496,ma_choice_v4_real1,5bf9b46ccad1240001e8a496,2,Reputation of closest school,100,,,wad_att_rating,5920,,,,,2022-06-16 20:48:45,19244
580a494da38f4a00012ebfdc,ma_choice_v4_real1,580a494da38f4a00012ebfdc,3,Year building was built,37,,,wad_att_rating,5820,,,,,2022-06-16 20:48:45,19245
5e3309ad239ceb2d47d47c4a,ma_choice_v4_real1,5e3309ad239ceb2d47d47c4a,5,Quality of kitchen,74,,,wad_att_rating,4446,,,,,2022-06-16 20:48:48,19246
5bf9b46ccad1240001e8a496,ma_choice_v4_real1,5bf9b46ccad1240001e8a496,8,Size of home,0,,,wad_att_rating,4052,,,,,2022-06-16 20:48:49,19247
60fdcc2afba2a30113dd5b1f,ma_choice_v4_real1,60fdcc2afba2a30113dd5b1f,4,Size of yard,-1,600 square feet,0 square feet,direction,2843,,,,,2022-06-16 20:48:51,19248
5bf9b46ccad1240001e8a496,ma_choice_v4_real1,5bf9b46ccad1240001e8a496,7,Amount of traffic,0,,,wad_att_rating,2613,,,,,2022-06-16 20:48:51,19249
580a494da38f4a00012ebfdc,ma_choice_v4_real1,580a494da38f4a00012ebfdc,2,Reputation of closest school,12,,,wad_att_rating,6237,,,,,2022-06-16 20:48:51,19250
5bf9b46ccad1240001e8a496,ma_choice_v4_real1,5bf9b46ccad1240001e8a496,1,Noise pollution,0,,,wad_att_rating,3229,,,,,2022-06-16 20:48:54,19251
5bf9b46ccad1240001e8a496,ma_choice_v4_real1,5bf9b46ccad1240001e8a496,0,Closeness to parks,0,,,wad_att_rating,4085,,,,,2022-06-16 20:48:59,19252
580a494da38f4a00012ebfdc,ma_choice_v4_real1,580a494da38f4a00012ebfdc,7,Amount of traffic,43,,,wad_att_rating,7950,,,,,2022-06-16 20:48:59,19253
60fdcc2afba2a30113dd5b1f,ma_choice_v4_real1,60fdcc2afba2a30113dd5b1f,7,Amount of traffic,-1,A Moderate Amount,Very Little,direction,3959,,,,,2022-06-16 20:49:01,19254
60fdab454b8c00448c10fa27,ma_choice_v4_real1,60fdab454b8c00448c10fa27,0,Size of home,1,,,ew_att_rating,15268,,,,,2022-06-16 20:49:01,19255
60fdab454b8c00448c10fa27,ma_choice_v4_real1,60fdab454b8c00448c10fa27,0,Size of yard,1,,,ew_att_rating,15268,,,,,2022-06-16 20:49:01,19256
60fdab454b8c00448c10fa27,ma_choice_v4_real1,60fdab454b8c00448c10fa27,0,Amount of traffic,1,,,ew_att_rating,15268,,,,,2022-06-16 20:49:01,19257
60fdab454b8c00448c10fa27,ma_choice_v4_real1,60fdab454b8c00448c10fa27,0,Noise pollution,1,,,ew_att_rating,15268,,,,,2022-06-16 20:49:02,19258
60fdab454b8c00448c10fa27,ma_choice_v4_real1,60fdab454b8c00448c10fa27,0,Quality of kitchen,1,,,ew_att_rating,15268,,,,,2022-06-16 20:49:02,19259
580a494da38f4a00012ebfdc,ma_choice_v4_real1,580a494da38f4a00012ebfdc,5,Quality of kitchen,56,,,wad_att_rating,7461,,,,,2022-06-16 20:49:07,19260
60fdcc2afba2a30113dd5b1f,ma_choice_v4_real1,60fdcc2afba2a30113dd5b1f,8,Size of home,-1,1800 square feet,600 square feet,direction,2093,,,,,2022-06-16 20:49:07,19261
5bf9b46ccad1240001e8a496,ma_choice_v4_real1,5bf9b46ccad1240001e8a496,5,Quality of kitchen,0,,,wad_att_rating,8660,,,,,2022-06-16 20:49:07,19262
60fdcc2afba2a30113dd5b1f,ma_choice_v4_real1,60fdcc2afba2a30113dd5b1f,5,Quality of kitchen,-1,Very Good,Very Bad,direction,2002,,,,,2022-06-16 20:49:12,19263
5bf9b46ccad1240001e8a496,ma_choice_v4_real1,5bf9b46ccad1240001e8a496,3,Year building was built,0,,,wad_att_rating,5708,,,,,2022-06-16 20:49:13,19264
580a494da38f4a00012ebfdc,ma_choice_v4_real1,580a494da38f4a00012ebfdc,6,Quality of heat/AC system,49,,,wad_att_rating,6692,,,,,2022-06-16 20:49:13,19265
60fdcc2afba2a30113dd5b1f,ma_choice_v4_real1,60fdcc2afba2a30113dd5b1f,3,Year building was built,-1,2020,1985,direction,2179,,,,,2022-06-16 20:49:17,19266
580a494da38f4a00012ebfdc,ma_choice_v4_real1,580a494da38f4a00012ebfdc,8,Size of home,62,,,wad_att_rating,6524,,,,,2022-06-16 20:49:20,19267
60fdcc2afba2a30113dd5b1f,ma_choice_v4_real1,60fdcc2afba2a30113dd5b1f,2,Reputation of closest school,-1,Very Good,Very Bad,direction,1979,,,,,2022-06-16 20:49:23,19268
580a494da38f4a00012ebfdc,ma_choice_v4_real1,580a494da38f4a00012ebfdc,1,Noise pollution,68,,,wad_att_rating,8195,,,,,2022-06-16 20:49:28,19269
5e3309ad239ceb2d47d47c4a,ma_choice_v4_real1,5e3309ad239ceb2d47d47c4a,8,Size of home,-1,1800 square feet,600 square feet,direction,3861,,,,,2022-06-16 20:49:28,19270
580a494da38f4a00012ebfdc,ma_choice_v4_real1,580a494da38f4a00012ebfdc,0,Closeness to parks,31,,,wad_att_rating,6604,,,,,2022-06-16 20:49:35,19271
60fdcc2afba2a30113dd5b1f,ma_choice_v4_real1,60fdcc2afba2a30113dd5b1f,1,Noise pollution,-1,Moderate,Very Low,direction,7247,,,,,2022-06-16 20:49:35,19272
5e3309ad239ceb2d47d47c4a,ma_choice_v4_real1,5e3309ad239ceb2d47d47c4a,1,Noise pollution,-1,High,Very Low,direction,2729,,,,,2022-06-16 20:49:35,19273
5ea89d0c5a0a9c12978f8263,ma_choice_v4_real1,5ea89d0c5a0a9c12978f8263,8,Size of home,0,,,wad_att_rating,3205,,,,,2022-06-16 20:49:36,19274
5ea89d0c5a0a9c12978f8263,ma_choice_v4_real1,5ea89d0c5a0a9c12978f8263,3,Year building was built,0,,,wad_att_rating,2852,,,,,2022-06-16 20:49:38,19275
60fdcc2afba2a30113dd5b1f,ma_choice_v4_real1,60fdcc2afba2a30113dd5b1f,0,Closeness to parks,-1,10 min away,30 min away,direction,2298,,,,,2022-06-16 20:49:42,19276
5ea89d0c5a0a9c12978f8263,ma_choice_v4_real1,5ea89d0c5a0a9c12978f8263,1,Noise pollution,86,,,wad_att_rating,5141,,,,,2022-06-16 20:49:43,19277
5e3309ad239ceb2d47d47c4a,ma_choice_v4_real1,5e3309ad239ceb2d47d47c4a,3,Year building was built,-1,1985,1950,direction,2951,,,,,2022-06-16 20:49:44,19278
5ea89d0c5a0a9c12978f8263,ma_choice_v4_real1,5ea89d0c5a0a9c12978f8263,4,Size of yard,0,,,wad_att_rating,2575,,,,,2022-06-16 20:49:46,19279
615914a33224dc31f1045612,ma_choice_v4_real1,615914a33224dc31f1045612,0,Quality of heat/AC system,1,,,lex_att_rating,5158,,,,,2022-06-16 20:49:46,19280
60fdcc2afba2a30113dd5b1f,ma_choice_v4_real1,60fdcc2afba2a30113dd5b1f,6,Quality of heat/AC system,-1,Very Good,Very Bad,direction,1662,,,,,2022-06-16 20:49:47,19281
5ea89d0c5a0a9c12978f8263,ma_choice_v4_real1,5ea89d0c5a0a9c12978f8263,2,Reputation of closest school,100,,,wad_att_rating,3350,,,,,2022-06-16 20:49:49,19282
5ea89d0c5a0a9c12978f8263,ma_choice_v4_real1,5ea89d0c5a0a9c12978f8263,0,Closeness to parks,0,,,wad_att_rating,2314,,,,,2022-06-16 20:49:51,19283
5ea89d0c5a0a9c12978f8263,ma_choice_v4_real1,5ea89d0c5a0a9c12978f8263,5,Quality of kitchen,0,,,wad_att_rating,2158,,,,,2022-06-16 20:49:53,19284
5ea89d0c5a0a9c12978f8263,ma_choice_v4_real1,5ea89d0c5a0a9c12978f8263,6,Quality of heat/AC system,0,,,wad_att_rating,2124,,,,,2022-06-16 20:49:56,19285
5e3309ad239ceb2d47d47c4a,ma_choice_v4_real1,5e3309ad239ceb2d47d47c4a,2,Reputation of closest school,-1,Moderate,Very Bad,direction,3675,,,,,2022-06-16 20:49:56,19286
615914a33224dc31f1045612,ma_choice_v4_real1,615914a33224dc31f1045612,2,Reputation of closest school,0,,,wad_att_rating,3769,,,,,2022-06-16 20:49:58,19287
5ea89d0c5a0a9c12978f8263,ma_choice_v4_real1,5ea89d0c5a0a9c12978f8263,7,Amount of traffic,0,,,wad_att_rating,2299,,,,,2022-06-16 20:49:58,19288
5e3309ad239ceb2d47d47c4a,ma_choice_v4_real1,5e3309ad239ceb2d47d47c4a,6,Quality of heat/AC system,-1,Moderate,Very Bad,direction,3169,,,,,2022-06-16 20:50:03,19289
615914a33224dc31f1045612,ma_choice_v4_real1,615914a33224dc31f1045612,3,Year building was built,0,,,wad_att_rating,6177,,,,,2022-06-16 20:50:04,19290
