subject,version,assignmentId,trial,attribute,rating,least_preferred,most_preferred,type,rt,rt2,full_or_lex,signed_weights,original_or_followup,stamp,id
6323781f75962af097c34b5e,ma_choice_v4_movie_observers_real1,6323781f75962af097c34b5e,0,Dialogue,1,,,lex_att_rating,6288,,,,,2022-11-17 16:52:56,91976
6323781f75962af097c34b5e,ma_choice_v4_movie_observers_real1,6323781f75962af097c34b5e,0,Romantic Scenes,1,,,ew_att_rating,6534,,,,,2022-11-17 16:53:08,91977
6323781f75962af097c34b5e,ma_choice_v4_movie_observers_real1,6323781f75962af097c34b5e,0,Action Scenes,1,,,ew_att_rating,6534,,,,,2022-11-17 16:53:08,91978
6323781f75962af097c34b5e,ma_choice_v4_movie_observers_real1,6323781f75962af097c34b5e,0,Dialogue,1,,,ew_att_rating,6534,,,,,2022-11-17 16:53:08,91979
6323781f75962af097c34b5e,ma_choice_v4_movie_observers_real1,6323781f75962af097c34b5e,0,Soundtrack,1,,,ew_att_rating,6534,,,,,2022-11-17 16:53:08,91980
6323781f75962af097c34b5e,ma_choice_v4_movie_observers_real1,6323781f75962af097c34b5e,0,artistic,31,,,wad_att_rating,4537,,,,,2022-11-17 16:53:17,91981
6323781f75962af097c34b5e,ma_choice_v4_movie_observers_real1,6323781f75962af097c34b5e,2,romantic,76,,,wad_att_rating,2611,,,,,2022-11-17 16:53:20,91982
6323781f75962af097c34b5e,ma_choice_v4_movie_observers_real1,6323781f75962af097c34b5e,6,dialogue,92,,,wad_att_rating,2422,,,,,2022-11-17 16:53:22,91983
6323781f75962af097c34b5e,ma_choice_v4_movie_observers_real1,6323781f75962af097c34b5e,1,funny,29,,,wad_att_rating,2129,,,,,2022-11-17 16:53:24,91984
6323781f75962af097c34b5e,ma_choice_v4_movie_observers_real1,6323781f75962af097c34b5e,8,good action,54,,,wad_att_rating,2421,,,,,2022-11-17 16:53:27,91985
6323781f75962af097c34b5e,ma_choice_v4_movie_observers_real1,6323781f75962af097c34b5e,7,awesome soundtrack,52,,,wad_att_rating,2315,,,,,2022-11-17 16:53:29,91986
6323781f75962af097c34b5e,ma_choice_v4_movie_observers_real1,6323781f75962af097c34b5e,3,visual,37,,,wad_att_rating,2761,,,,,2022-11-17 16:53:32,91987
6323781f75962af097c34b5e,ma_choice_v4_movie_observers_real1,6323781f75962af097c34b5e,5,plot,58,,,wad_att_rating,3572,,,,,2022-11-17 16:53:35,91988
6323781f75962af097c34b5e,ma_choice_v4_movie_observers_real1,6323781f75962af097c34b5e,4,great acting,17,,,wad_att_rating,2105,,,,,2022-11-17 16:53:37,91989
6323781f75962af097c34b5e,ma_choice_v4_movie_observers_real1,6323781f75962af097c34b5e,0,awesome soundtrack,1,Very Bad,Very Good,direction,9006,,,,,2022-11-17 16:54:17,91990
6323781f75962af097c34b5e,ma_choice_v4_movie_observers_real1,6323781f75962af097c34b5e,0,awesome soundtrack,1,Very Bad,Bad,direction,3935,,,,,2022-11-17 16:54:21,91991
6323781f75962af097c34b5e,ma_choice_v4_movie_observers_real1,6323781f75962af097c34b5e,0,awesome soundtrack,1,Bad,Moderate,direction,5431,,,,,2022-11-17 16:54:26,91992
6323781f75962af097c34b5e,ma_choice_v4_movie_observers_real1,6323781f75962af097c34b5e,0,awesome soundtrack,1,Moderate,Good,direction,1908,,,,,2022-11-17 16:54:28,91993
6323781f75962af097c34b5e,ma_choice_v4_movie_observers_real1,6323781f75962af097c34b5e,0,awesome soundtrack,1,Good,Very Good,direction,1669,,,,,2022-11-17 16:54:29,91994
6323781f75962af097c34b5e,ma_choice_v4_movie_observers_real1,6323781f75962af097c34b5e,1,dialogue,1,Very Bad,Very Good,direction,3181,,,,,2022-11-17 16:54:35,91995
6323781f75962af097c34b5e,ma_choice_v4_movie_observers_real1,6323781f75962af097c34b5e,1,dialogue,1,Very Bad,Bad,direction,1956,,,,,2022-11-17 16:54:37,91996
6323781f75962af097c34b5e,ma_choice_v4_movie_observers_real1,6323781f75962af097c34b5e,1,dialogue,1,Bad,Moderate,direction,1539,,,,,2022-11-17 16:54:38,91997
6323781f75962af097c34b5e,ma_choice_v4_movie_observers_real1,6323781f75962af097c34b5e,1,dialogue,1,Moderate,Good,direction,2800,,,,,2022-11-17 16:54:42,91998
6323781f75962af097c34b5e,ma_choice_v4_movie_observers_real1,6323781f75962af097c34b5e,1,dialogue,1,Good,Very Good,direction,1714,,,,,2022-11-17 16:54:43,91999
6323781f75962af097c34b5e,ma_choice_v4_movie_observers_real1,6323781f75962af097c34b5e,2,artistic,1,Very Bad,Very Good,direction,3942,,,,,2022-11-17 16:54:48,92000
6323781f75962af097c34b5e,ma_choice_v4_movie_observers_real1,6323781f75962af097c34b5e,2,artistic,1,Very Bad,Bad,direction,2743,,,,,2022-11-17 16:54:51,92001
6323781f75962af097c34b5e,ma_choice_v4_movie_observers_real1,6323781f75962af097c34b5e,2,artistic,1,Bad,Moderate,direction,3793,,,,,2022-11-17 16:54:54,92002
6323781f75962af097c34b5e,ma_choice_v4_movie_observers_real1,6323781f75962af097c34b5e,2,artistic,0,Moderate,Good,direction,1815,,,,,2022-11-17 16:54:56,92003
6323781f75962af097c34b5e,ma_choice_v4_movie_observers_real1,6323781f75962af097c34b5e,2,artistic,0,Good,Very Good,direction,1220,,,,,2022-11-17 16:54:58,92004
6323781f75962af097c34b5e,ma_choice_v4_movie_observers_real1,6323781f75962af097c34b5e,3,great acting,1,Very Bad,Very Good,direction,3210,,,,,2022-11-17 16:55:02,92005
6323781f75962af097c34b5e,ma_choice_v4_movie_observers_real1,6323781f75962af097c34b5e,3,great acting,1,Very Bad,Bad,direction,1566,,,,,2022-11-17 16:55:03,92006
6323781f75962af097c34b5e,ma_choice_v4_movie_observers_real1,6323781f75962af097c34b5e,3,great acting,1,Bad,Moderate,direction,2171,,,,,2022-11-17 16:55:06,92007
6323781f75962af097c34b5e,ma_choice_v4_movie_observers_real1,6323781f75962af097c34b5e,3,great acting,0,Moderate,Good,direction,1235,,,,,2022-11-17 16:55:07,92008
6323781f75962af097c34b5e,ma_choice_v4_movie_observers_real1,6323781f75962af097c34b5e,3,great acting,0,Good,Very Good,direction,1065,,,,,2022-11-17 16:55:08,92009
6323781f75962af097c34b5e,ma_choice_v4_movie_observers_real1,6323781f75962af097c34b5e,4,plot,1,Very Bad,Very Good,direction,1706,,,,,2022-11-17 16:55:12,92010
6323781f75962af097c34b5e,ma_choice_v4_movie_observers_real1,6323781f75962af097c34b5e,4,plot,1,Very Bad,Bad,direction,1811,,,,,2022-11-17 16:55:13,92011
6323781f75962af097c34b5e,ma_choice_v4_movie_observers_real1,6323781f75962af097c34b5e,4,plot,1,Bad,Moderate,direction,1044,,,,,2022-11-17 16:55:14,92012
6323781f75962af097c34b5e,ma_choice_v4_movie_observers_real1,6323781f75962af097c34b5e,4,plot,1,Moderate,Good,direction,1103,,,,,2022-11-17 16:55:16,92013
6323781f75962af097c34b5e,ma_choice_v4_movie_observers_real1,6323781f75962af097c34b5e,4,plot,0,Good,Very Good,direction,1186,,,,,2022-11-17 16:55:17,92014
6323781f75962af097c34b5e,ma_choice_v4_movie_observers_real1,6323781f75962af097c34b5e,5,romantic,1,Very Bad,Very Good,direction,1127,,,,,2022-11-17 16:55:19,92015
6323781f75962af097c34b5e,ma_choice_v4_movie_observers_real1,6323781f75962af097c34b5e,5,romantic,1,Very Bad,Bad,direction,961,,,,,2022-11-17 16:55:20,92016
6323781f75962af097c34b5e,ma_choice_v4_movie_observers_real1,6323781f75962af097c34b5e,5,romantic,1,Bad,Moderate,direction,1084,,,,,2022-11-17 16:55:21,92017
6323781f75962af097c34b5e,ma_choice_v4_movie_observers_real1,6323781f75962af097c34b5e,5,romantic,1,Moderate,Good,direction,1974,,,,,2022-11-17 16:55:23,92018
6323781f75962af097c34b5e,ma_choice_v4_movie_observers_real1,6323781f75962af097c34b5e,5,romantic,1,Good,Very Good,direction,1411,,,,,2022-11-17 16:55:24,92019
6323781f75962af097c34b5e,ma_choice_v4_movie_observers_real1,6323781f75962af097c34b5e,6,visual,1,Very Bad,Very Good,direction,1228,,,,,2022-11-17 16:55:26,92020
6323781f75962af097c34b5e,ma_choice_v4_movie_observers_real1,6323781f75962af097c34b5e,6,visual,0,Very Bad,Bad,direction,2777,,,,,2022-11-17 16:55:29,92021
6323781f75962af097c34b5e,ma_choice_v4_movie_observers_real1,6323781f75962af097c34b5e,6,visual,0,Bad,Moderate,direction,1433,,,,,2022-11-17 16:55:31,92022
6323781f75962af097c34b5e,ma_choice_v4_movie_observers_real1,6323781f75962af097c34b5e,6,visual,0,Moderate,Good,direction,1093,,,,,2022-11-17 16:55:32,92023
6323781f75962af097c34b5e,ma_choice_v4_movie_observers_real1,6323781f75962af097c34b5e,6,visual,0,Good,Very Good,direction,1344,,,,,2022-11-17 16:55:33,92024
6323781f75962af097c34b5e,ma_choice_v4_movie_observers_real1,6323781f75962af097c34b5e,7,good action,1,Very Bad,Very Good,direction,2121,,,,,2022-11-17 16:55:36,92025
6323781f75962af097c34b5e,ma_choice_v4_movie_observers_real1,6323781f75962af097c34b5e,7,good action,1,Very Bad,Bad,direction,1171,,,,,2022-11-17 16:55:37,92026
6323781f75962af097c34b5e,ma_choice_v4_movie_observers_real1,6323781f75962af097c34b5e,7,good action,1,Bad,Moderate,direction,1431,,,,,2022-11-17 16:55:39,92027
6323781f75962af097c34b5e,ma_choice_v4_movie_observers_real1,6323781f75962af097c34b5e,7,good action,1,Moderate,Good,direction,962,,,,,2022-11-17 16:55:40,92028
6323781f75962af097c34b5e,ma_choice_v4_movie_observers_real1,6323781f75962af097c34b5e,7,good action,0,Good,Very Good,direction,1557,,,,,2022-11-17 16:55:41,92029
6323781f75962af097c34b5e,ma_choice_v4_movie_observers_real1,6323781f75962af097c34b5e,8,funny,1,Very Bad,Very Good,direction,1447,,,,,2022-11-17 16:55:44,92030
6323781f75962af097c34b5e,ma_choice_v4_movie_observers_real1,6323781f75962af097c34b5e,8,funny,1,Very Bad,Bad,direction,1084,,,,,2022-11-17 16:55:45,92031
6323781f75962af097c34b5e,ma_choice_v4_movie_observers_real1,6323781f75962af097c34b5e,8,funny,0,Bad,Moderate,direction,937,,,,,2022-11-17 16:55:46,92032
6323781f75962af097c34b5e,ma_choice_v4_movie_observers_real1,6323781f75962af097c34b5e,8,funny,0,Moderate,Good,direction,935,,,,,2022-11-17 16:55:47,92033
6323781f75962af097c34b5e,ma_choice_v4_movie_observers_real1,6323781f75962af097c34b5e,8,funny,0,Good,Very Good,direction,1032,,,,,2022-11-17 16:55:48,92034
5d3caf9429130a00015cd0e3,ma_choice_v4_movie_observers_real1,5d3caf9429130a00015cd0e3,0,Creativity,1,,,ew_att_rating,11253,,,,,2022-11-17 17:15:02,92035
5d3caf9429130a00015cd0e3,ma_choice_v4_movie_observers_real1,5d3caf9429130a00015cd0e3,0,Romantic Scenes,1,,,ew_att_rating,11253,,,,,2022-11-17 17:15:02,92036
5d3caf9429130a00015cd0e3,ma_choice_v4_movie_observers_real1,5d3caf9429130a00015cd0e3,0,Plot,1,,,ew_att_rating,11253,,,,,2022-11-17 17:15:02,92037
5d3caf9429130a00015cd0e3,ma_choice_v4_movie_observers_real1,5d3caf9429130a00015cd0e3,2,romantic,68,,,wad_att_rating,6516,,,,,2022-11-17 17:15:18,92038
5d3caf9429130a00015cd0e3,ma_choice_v4_movie_observers_real1,5d3caf9429130a00015cd0e3,4,great acting,86,,,wad_att_rating,5288,,,,,2022-11-17 17:15:23,92039
5d3caf9429130a00015cd0e3,ma_choice_v4_movie_observers_real1,5d3caf9429130a00015cd0e3,0,artistic,88,,,wad_att_rating,5611,,,,,2022-11-17 17:15:29,92040
5d3caf9429130a00015cd0e3,ma_choice_v4_movie_observers_real1,5d3caf9429130a00015cd0e3,5,plot,91,,,wad_att_rating,5673,,,,,2022-11-17 17:15:35,92041
5d3caf9429130a00015cd0e3,ma_choice_v4_movie_observers_real1,5d3caf9429130a00015cd0e3,3,visual,37,,,wad_att_rating,2393,,,,,2022-11-17 17:15:37,92042
5d3caf9429130a00015cd0e3,ma_choice_v4_movie_observers_real1,5d3caf9429130a00015cd0e3,7,awesome soundtrack,11,,,wad_att_rating,3926,,,,,2022-11-17 17:15:41,92043
5d3caf9429130a00015cd0e3,ma_choice_v4_movie_observers_real1,5d3caf9429130a00015cd0e3,8,good action,36,,,wad_att_rating,3336,,,,,2022-11-17 17:15:44,92044
5d3caf9429130a00015cd0e3,ma_choice_v4_movie_observers_real1,5d3caf9429130a00015cd0e3,6,dialogue,13,,,wad_att_rating,3374,,,,,2022-11-17 17:15:48,92045
5d3caf9429130a00015cd0e3,ma_choice_v4_movie_observers_real1,5d3caf9429130a00015cd0e3,1,funny,23,,,wad_att_rating,2060,,,,,2022-11-17 17:15:50,92046
5d3caf9429130a00015cd0e3,ma_choice_v4_movie_observers_real1,5d3caf9429130a00015cd0e3,0,Creativity,1,,,lex_att_rating,9917,,,,,2022-11-17 17:16:04,92047
56a68b2d9ce1c0000cf89299,ma_choice_v4_movie_observers_real1,56a68b2d9ce1c0000cf89299,0,Dialogue,1,,,lex_att_rating,9599,,,,,2022-11-17 17:18:46,92048
56a68b2d9ce1c0000cf89299,ma_choice_v4_movie_observers_real1,56a68b2d9ce1c0000cf89299,0,artistic,40,,,wad_att_rating,6065,,,,,2022-11-17 17:18:56,92049
56a68b2d9ce1c0000cf89299,ma_choice_v4_movie_observers_real1,56a68b2d9ce1c0000cf89299,1,funny,20,,,wad_att_rating,2055,,,,,2022-11-17 17:18:59,92050
56a68b2d9ce1c0000cf89299,ma_choice_v4_movie_observers_real1,56a68b2d9ce1c0000cf89299,3,visual,59,,,wad_att_rating,3112,,,,,2022-11-17 17:19:02,92051
56a68b2d9ce1c0000cf89299,ma_choice_v4_movie_observers_real1,56a68b2d9ce1c0000cf89299,4,great acting,69,,,wad_att_rating,2701,,,,,2022-11-17 17:19:04,92052
56a68b2d9ce1c0000cf89299,ma_choice_v4_movie_observers_real1,56a68b2d9ce1c0000cf89299,2,romantic,9,,,wad_att_rating,1591,,,,,2022-11-17 17:19:06,92053
56a68b2d9ce1c0000cf89299,ma_choice_v4_movie_observers_real1,56a68b2d9ce1c0000cf89299,6,dialogue,89,,,wad_att_rating,3300,,,,,2022-11-17 17:19:09,92054
56a68b2d9ce1c0000cf89299,ma_choice_v4_movie_observers_real1,56a68b2d9ce1c0000cf89299,7,awesome soundtrack,13,,,wad_att_rating,3215,,,,,2022-11-17 17:19:12,92055
56a68b2d9ce1c0000cf89299,ma_choice_v4_movie_observers_real1,56a68b2d9ce1c0000cf89299,8,good action,1,,,wad_att_rating,2220,,,,,2022-11-17 17:19:15,92056
56a68b2d9ce1c0000cf89299,ma_choice_v4_movie_observers_real1,56a68b2d9ce1c0000cf89299,5,plot,73,,,wad_att_rating,2066,,,,,2022-11-17 17:19:17,92057
56a68b2d9ce1c0000cf89299,ma_choice_v4_movie_observers_real1,56a68b2d9ce1c0000cf89299,0,Visuals,1,,,ew_att_rating,16466,,,,,2022-11-17 17:19:34,92058
56a68b2d9ce1c0000cf89299,ma_choice_v4_movie_observers_real1,56a68b2d9ce1c0000cf89299,0,Plot,1,,,ew_att_rating,16466,,,,,2022-11-17 17:19:34,92059
56a68b2d9ce1c0000cf89299,ma_choice_v4_movie_observers_real1,56a68b2d9ce1c0000cf89299,0,Acting,1,,,ew_att_rating,16466,,,,,2022-11-17 17:19:34,92060
56a68b2d9ce1c0000cf89299,ma_choice_v4_movie_observers_real1,56a68b2d9ce1c0000cf89299,0,Dialogue,1,,,ew_att_rating,16466,,,,,2022-11-17 17:19:34,92061
5a0a49e05d06850001affa34,ma_choice_v4_movie_observers_real1,5a0a49e05d06850001affa34,0,Romantic Scenes,1,,,ew_att_rating,36517,,,,,2022-11-17 17:20:53,92062
5a0a49e05d06850001affa34,ma_choice_v4_movie_observers_real1,5a0a49e05d06850001affa34,0,Acting,1,,,ew_att_rating,36517,,,,,2022-11-17 17:20:53,92063
5a0a49e05d06850001affa34,ma_choice_v4_movie_observers_real1,5a0a49e05d06850001affa34,0,Dialogue,1,,,ew_att_rating,36517,,,,,2022-11-17 17:20:53,92064
5a0a49e05d06850001affa34,ma_choice_v4_movie_observers_real1,5a0a49e05d06850001affa34,0,Action Scenes,1,,,ew_att_rating,36517,,,,,2022-11-17 17:20:53,92065
5a0a49e05d06850001affa34,ma_choice_v4_movie_observers_real1,5a0a49e05d06850001affa34,2,romantic,75,,,wad_att_rating,9295,,,,,2022-11-17 17:21:13,92066
5a0a49e05d06850001affa34,ma_choice_v4_movie_observers_real1,5a0a49e05d06850001affa34,6,dialogue,50,,,wad_att_rating,6152,,,,,2022-11-17 17:21:19,92067
5a0a49e05d06850001affa34,ma_choice_v4_movie_observers_real1,5a0a49e05d06850001affa34,1,funny,12,,,wad_att_rating,4941,,,,,2022-11-17 17:21:24,92068
5a0a49e05d06850001affa34,ma_choice_v4_movie_observers_real1,5a0a49e05d06850001affa34,8,good action,50,,,wad_att_rating,4141,,,,,2022-11-17 17:21:29,92069
5a0a49e05d06850001affa34,ma_choice_v4_movie_observers_real1,5a0a49e05d06850001affa34,0,artistic,0,,,wad_att_rating,3709,,,,,2022-11-17 17:21:32,92070
5a0a49e05d06850001affa34,ma_choice_v4_movie_observers_real1,5a0a49e05d06850001affa34,3,visual,37,,,wad_att_rating,4380,,,,,2022-11-17 17:21:37,92071
5a0a49e05d06850001affa34,ma_choice_v4_movie_observers_real1,5a0a49e05d06850001affa34,7,awesome soundtrack,37,,,wad_att_rating,6044,,,,,2022-11-17 17:21:43,92072
5a0a49e05d06850001affa34,ma_choice_v4_movie_observers_real1,5a0a49e05d06850001affa34,5,plot,9,,,wad_att_rating,5883,,,,,2022-11-17 17:21:49,92073
5a0a49e05d06850001affa34,ma_choice_v4_movie_observers_real1,5a0a49e05d06850001affa34,4,great acting,75,,,wad_att_rating,4683,,,,,2022-11-17 17:21:53,92074
5a0a49e05d06850001affa34,ma_choice_v4_movie_observers_real1,5a0a49e05d06850001affa34,0,Romantic Scenes,1,,,lex_att_rating,6537,,,,,2022-11-17 17:22:08,92075
5d3caf9429130a00015cd0e3,ma_choice_v4_movie_observers_real1,5d3caf9429130a00015cd0e3,0,good action,1,Very Bad,Very Good,direction,22232,,,,,2022-11-17 17:23:29,92076
5d3caf9429130a00015cd0e3,ma_choice_v4_movie_observers_real1,5d3caf9429130a00015cd0e3,0,good action,1,Very Bad,Bad,direction,8404,,,,,2022-11-17 17:23:37,92077
5d3caf9429130a00015cd0e3,ma_choice_v4_movie_observers_real1,5d3caf9429130a00015cd0e3,0,good action,1,Bad,Moderate,direction,5389,,,,,2022-11-17 17:23:43,92078
5d3caf9429130a00015cd0e3,ma_choice_v4_movie_observers_real1,5d3caf9429130a00015cd0e3,0,good action,1,Moderate,Good,direction,7859,,,,,2022-11-17 17:23:50,92079
5d3caf9429130a00015cd0e3,ma_choice_v4_movie_observers_real1,5d3caf9429130a00015cd0e3,0,good action,1,Good,Very Good,direction,36332,,,,,2022-11-17 17:24:27,92080
5d3caf9429130a00015cd0e3,ma_choice_v4_movie_observers_real1,5d3caf9429130a00015cd0e3,1,artistic,1,Very Bad,Very Good,direction,7813,,,,,2022-11-17 17:24:36,92081
5d3caf9429130a00015cd0e3,ma_choice_v4_movie_observers_real1,5d3caf9429130a00015cd0e3,1,artistic,1,Very Bad,Bad,direction,4601,,,,,2022-11-17 17:24:41,92082
5d3caf9429130a00015cd0e3,ma_choice_v4_movie_observers_real1,5d3caf9429130a00015cd0e3,1,artistic,1,Bad,Moderate,direction,5184,,,,,2022-11-17 17:24:46,92083
5d3caf9429130a00015cd0e3,ma_choice_v4_movie_observers_real1,5d3caf9429130a00015cd0e3,1,artistic,1,Moderate,Good,direction,3727,,,,,2022-11-17 17:24:50,92084
5d3caf9429130a00015cd0e3,ma_choice_v4_movie_observers_real1,5d3caf9429130a00015cd0e3,1,artistic,1,Good,Very Good,direction,4114,,,,,2022-11-17 17:24:54,92085
5d3caf9429130a00015cd0e3,ma_choice_v4_movie_observers_real1,5d3caf9429130a00015cd0e3,2,awesome soundtrack,1,Very Bad,Very Good,direction,7036,,,,,2022-11-17 17:25:02,92086
5d3caf9429130a00015cd0e3,ma_choice_v4_movie_observers_real1,5d3caf9429130a00015cd0e3,2,awesome soundtrack,1,Very Bad,Bad,direction,3191,,,,,2022-11-17 17:25:06,92087
5d3caf9429130a00015cd0e3,ma_choice_v4_movie_observers_real1,5d3caf9429130a00015cd0e3,2,awesome soundtrack,1,Bad,Moderate,direction,4194,,,,,2022-11-17 17:25:10,92088
5d3caf9429130a00015cd0e3,ma_choice_v4_movie_observers_real1,5d3caf9429130a00015cd0e3,2,awesome soundtrack,1,Moderate,Good,direction,8252,,,,,2022-11-17 17:25:18,92089
5d3caf9429130a00015cd0e3,ma_choice_v4_movie_observers_real1,5d3caf9429130a00015cd0e3,2,awesome soundtrack,1,Good,Very Good,direction,3908,,,,,2022-11-17 17:25:22,92090
5d3caf9429130a00015cd0e3,ma_choice_v4_movie_observers_real1,5d3caf9429130a00015cd0e3,3,great acting,1,Very Bad,Very Good,direction,3895,,,,,2022-11-17 17:25:27,92091
5d3caf9429130a00015cd0e3,ma_choice_v4_movie_observers_real1,5d3caf9429130a00015cd0e3,3,great acting,1,Very Bad,Bad,direction,3398,,,,,2022-11-17 17:25:31,92092
5d3caf9429130a00015cd0e3,ma_choice_v4_movie_observers_real1,5d3caf9429130a00015cd0e3,3,great acting,1,Bad,Moderate,direction,2925,,,,,2022-11-17 17:25:34,92093
5d3caf9429130a00015cd0e3,ma_choice_v4_movie_observers_real1,5d3caf9429130a00015cd0e3,3,great acting,1,Moderate,Good,direction,4209,,,,,2022-11-17 17:25:38,92094
5d3caf9429130a00015cd0e3,ma_choice_v4_movie_observers_real1,5d3caf9429130a00015cd0e3,3,great acting,1,Good,Very Good,direction,3560,,,,,2022-11-17 17:25:42,92095
5d3caf9429130a00015cd0e3,ma_choice_v4_movie_observers_real1,5d3caf9429130a00015cd0e3,4,romantic,1,Very Bad,Very Good,direction,4965,,,,,2022-11-17 17:25:48,92096
5d3caf9429130a00015cd0e3,ma_choice_v4_movie_observers_real1,5d3caf9429130a00015cd0e3,4,romantic,1,Very Bad,Bad,direction,8109,,,,,2022-11-17 17:25:56,92097
5d3caf9429130a00015cd0e3,ma_choice_v4_movie_observers_real1,5d3caf9429130a00015cd0e3,4,romantic,1,Bad,Moderate,direction,4750,,,,,2022-11-17 17:26:01,92098
5d3caf9429130a00015cd0e3,ma_choice_v4_movie_observers_real1,5d3caf9429130a00015cd0e3,4,romantic,1,Moderate,Good,direction,2263,,,,,2022-11-17 17:26:03,92099
5d3caf9429130a00015cd0e3,ma_choice_v4_movie_observers_real1,5d3caf9429130a00015cd0e3,4,romantic,1,Good,Very Good,direction,2492,,,,,2022-11-17 17:26:06,92100
5d3caf9429130a00015cd0e3,ma_choice_v4_movie_observers_real1,5d3caf9429130a00015cd0e3,5,funny,1,Very Bad,Very Good,direction,3478,,,,,2022-11-17 17:26:10,92101
5d3caf9429130a00015cd0e3,ma_choice_v4_movie_observers_real1,5d3caf9429130a00015cd0e3,5,funny,1,Very Bad,Bad,direction,3168,,,,,2022-11-17 17:26:13,92102
5d3caf9429130a00015cd0e3,ma_choice_v4_movie_observers_real1,5d3caf9429130a00015cd0e3,5,funny,1,Bad,Moderate,direction,4223,,,,,2022-11-17 17:26:18,92103
5d3caf9429130a00015cd0e3,ma_choice_v4_movie_observers_real1,5d3caf9429130a00015cd0e3,5,funny,1,Moderate,Good,direction,2113,,,,,2022-11-17 17:26:20,92104
5d3caf9429130a00015cd0e3,ma_choice_v4_movie_observers_real1,5d3caf9429130a00015cd0e3,5,funny,1,Good,Very Good,direction,2342,,,,,2022-11-17 17:26:22,92105
5d3caf9429130a00015cd0e3,ma_choice_v4_movie_observers_real1,5d3caf9429130a00015cd0e3,6,plot,1,Very Bad,Very Good,direction,3508,,,,,2022-11-17 17:26:26,92106
5d3caf9429130a00015cd0e3,ma_choice_v4_movie_observers_real1,5d3caf9429130a00015cd0e3,6,plot,1,Very Bad,Bad,direction,2776,,,,,2022-11-17 17:26:29,92107
5d3caf9429130a00015cd0e3,ma_choice_v4_movie_observers_real1,5d3caf9429130a00015cd0e3,6,plot,1,Bad,Moderate,direction,2633,,,,,2022-11-17 17:26:32,92108
5d3caf9429130a00015cd0e3,ma_choice_v4_movie_observers_real1,5d3caf9429130a00015cd0e3,6,plot,1,Moderate,Good,direction,2357,,,,,2022-11-17 17:26:34,92109
5d3caf9429130a00015cd0e3,ma_choice_v4_movie_observers_real1,5d3caf9429130a00015cd0e3,6,plot,1,Good,Very Good,direction,2336,,,,,2022-11-17 17:26:37,92110
5d3caf9429130a00015cd0e3,ma_choice_v4_movie_observers_real1,5d3caf9429130a00015cd0e3,7,visual,1,Very Bad,Very Good,direction,2572,,,,,2022-11-17 17:26:41,92111
5d3caf9429130a00015cd0e3,ma_choice_v4_movie_observers_real1,5d3caf9429130a00015cd0e3,7,visual,1,Very Bad,Bad,direction,2995,,,,,2022-11-17 17:26:44,92112
5d3caf9429130a00015cd0e3,ma_choice_v4_movie_observers_real1,5d3caf9429130a00015cd0e3,7,visual,1,Bad,Moderate,direction,2468,,,,,2022-11-17 17:26:46,92113
5d3caf9429130a00015cd0e3,ma_choice_v4_movie_observers_real1,5d3caf9429130a00015cd0e3,7,visual,1,Moderate,Good,direction,2020,,,,,2022-11-17 17:26:48,92114
5d3caf9429130a00015cd0e3,ma_choice_v4_movie_observers_real1,5d3caf9429130a00015cd0e3,7,visual,1,Good,Very Good,direction,1775,,,,,2022-11-17 17:26:50,92115
5d3caf9429130a00015cd0e3,ma_choice_v4_movie_observers_real1,5d3caf9429130a00015cd0e3,8,dialogue,1,Very Bad,Very Good,direction,1912,,,,,2022-11-17 17:26:53,92116
5d3caf9429130a00015cd0e3,ma_choice_v4_movie_observers_real1,5d3caf9429130a00015cd0e3,8,dialogue,1,Very Bad,Bad,direction,2083,,,,,2022-11-17 17:26:55,92117
5d3caf9429130a00015cd0e3,ma_choice_v4_movie_observers_real1,5d3caf9429130a00015cd0e3,8,dialogue,1,Bad,Moderate,direction,1672,,,,,2022-11-17 17:26:57,92118
5d3caf9429130a00015cd0e3,ma_choice_v4_movie_observers_real1,5d3caf9429130a00015cd0e3,8,dialogue,1,Moderate,Good,direction,1421,,,,,2022-11-17 17:26:58,92119
5d3caf9429130a00015cd0e3,ma_choice_v4_movie_observers_real1,5d3caf9429130a00015cd0e3,8,dialogue,1,Good,Very Good,direction,2184,,,,,2022-11-17 17:27:00,92120
610ad34844dd2b51bf5d87f5,ma_choice_v4_movie_observers_real1,610ad34844dd2b51bf5d87f5,0,Acting,1,,,lex_att_rating,2262,,,,,2022-11-17 17:29:47,92121
610ad34844dd2b51bf5d87f5,ma_choice_v4_movie_observers_real1,610ad34844dd2b51bf5d87f5,4,great acting,81,,,wad_att_rating,6670,,,,,2022-11-17 17:29:56,92122
610ad34844dd2b51bf5d87f5,ma_choice_v4_movie_observers_real1,610ad34844dd2b51bf5d87f5,3,visual,20,,,wad_att_rating,4519,,,,,2022-11-17 17:30:01,92123
610ad34844dd2b51bf5d87f5,ma_choice_v4_movie_observers_real1,610ad34844dd2b51bf5d87f5,1,funny,14,,,wad_att_rating,2205,,,,,2022-11-17 17:30:03,92124
610ad34844dd2b51bf5d87f5,ma_choice_v4_movie_observers_real1,610ad34844dd2b51bf5d87f5,7,awesome soundtrack,17,,,wad_att_rating,2822,,,,,2022-11-17 17:30:06,92125
610ad34844dd2b51bf5d87f5,ma_choice_v4_movie_observers_real1,610ad34844dd2b51bf5d87f5,6,dialogue,33,,,wad_att_rating,4110,,,,,2022-11-17 17:30:10,92126
610ad34844dd2b51bf5d87f5,ma_choice_v4_movie_observers_real1,610ad34844dd2b51bf5d87f5,0,artistic,8,,,wad_att_rating,2294,,,,,2022-11-17 17:30:12,92127
610ad34844dd2b51bf5d87f5,ma_choice_v4_movie_observers_real1,610ad34844dd2b51bf5d87f5,2,romantic,3,,,wad_att_rating,2622,,,,,2022-11-17 17:30:15,92128
610ad34844dd2b51bf5d87f5,ma_choice_v4_movie_observers_real1,610ad34844dd2b51bf5d87f5,8,good action,25,,,wad_att_rating,3182,,,,,2022-11-17 17:30:18,92129
62ec1607cf0be424ae3e29d1,ma_choice_v4_movie_observers_real1,62ec1607cf0be424ae3e29d1,0,Visuals,1,,,lex_att_rating,9711,,,,,2022-11-17 17:30:22,92130
610ad34844dd2b51bf5d87f5,ma_choice_v4_movie_observers_real1,610ad34844dd2b51bf5d87f5,5,plot,33,,,wad_att_rating,3294,,,,,2022-11-17 17:30:22,92131
62ec1607cf0be424ae3e29d1,ma_choice_v4_movie_observers_real1,62ec1607cf0be424ae3e29d1,8,good action,25,,,wad_att_rating,4454,,,,,2022-11-17 17:30:33,92132
62ec1607cf0be424ae3e29d1,ma_choice_v4_movie_observers_real1,62ec1607cf0be424ae3e29d1,4,great acting,80,,,wad_att_rating,3646,,,,,2022-11-17 17:30:37,92133
610ad34844dd2b51bf5d87f5,ma_choice_v4_movie_observers_real1,610ad34844dd2b51bf5d87f5,0,Humor,1,,,ew_att_rating,9482,,,,,2022-11-17 17:30:37,92134
610ad34844dd2b51bf5d87f5,ma_choice_v4_movie_observers_real1,610ad34844dd2b51bf5d87f5,0,Acting,1,,,ew_att_rating,9482,,,,,2022-11-17 17:30:37,92135
610ad34844dd2b51bf5d87f5,ma_choice_v4_movie_observers_real1,610ad34844dd2b51bf5d87f5,0,Plot,1,,,ew_att_rating,9482,,,,,2022-11-17 17:30:37,92136
62ec1607cf0be424ae3e29d1,ma_choice_v4_movie_observers_real1,62ec1607cf0be424ae3e29d1,5,plot,38,,,wad_att_rating,3502,,,,,2022-11-17 17:30:40,92137
62ec1607cf0be424ae3e29d1,ma_choice_v4_movie_observers_real1,62ec1607cf0be424ae3e29d1,1,funny,90,,,wad_att_rating,3438,,,,,2022-11-17 17:30:44,92138
62ec1607cf0be424ae3e29d1,ma_choice_v4_movie_observers_real1,62ec1607cf0be424ae3e29d1,7,awesome soundtrack,44,,,wad_att_rating,2366,,,,,2022-11-17 17:30:46,92139
62ec1607cf0be424ae3e29d1,ma_choice_v4_movie_observers_real1,62ec1607cf0be424ae3e29d1,3,visual,91,,,wad_att_rating,2590,,,,,2022-11-17 17:30:49,92140
62ec1607cf0be424ae3e29d1,ma_choice_v4_movie_observers_real1,62ec1607cf0be424ae3e29d1,0,artistic,45,,,wad_att_rating,2774,,,,,2022-11-17 17:30:52,92141
62ec1607cf0be424ae3e29d1,ma_choice_v4_movie_observers_real1,62ec1607cf0be424ae3e29d1,6,dialogue,69,,,wad_att_rating,3295,,,,,2022-11-17 17:30:55,92142
62ec1607cf0be424ae3e29d1,ma_choice_v4_movie_observers_real1,62ec1607cf0be424ae3e29d1,2,romantic,87,,,wad_att_rating,2078,,,,,2022-11-17 17:30:57,92143
6172b8bcb0ca871db44b71c9,ma_choice_v4_movie_observers_real1,6172b8bcb0ca871db44b71c9,0,Creativity,1,,,lex_att_rating,4608,,,,,2022-11-17 17:31:18,92144
62ec1607cf0be424ae3e29d1,ma_choice_v4_movie_observers_real1,62ec1607cf0be424ae3e29d1,0,Humor,1,,,ew_att_rating,12580,,,,,2022-11-17 17:31:22,92145
62ec1607cf0be424ae3e29d1,ma_choice_v4_movie_observers_real1,62ec1607cf0be424ae3e29d1,0,Visuals,1,,,ew_att_rating,12580,,,,,2022-11-17 17:31:22,92146
62ec1607cf0be424ae3e29d1,ma_choice_v4_movie_observers_real1,62ec1607cf0be424ae3e29d1,0,Dialogue,1,,,ew_att_rating,12580,,,,,2022-11-17 17:31:22,92147
62ec1607cf0be424ae3e29d1,ma_choice_v4_movie_observers_real1,62ec1607cf0be424ae3e29d1,0,Romantic Scenes,1,,,ew_att_rating,12580,,,,,2022-11-17 17:31:22,92148
6172b8bcb0ca871db44b71c9,ma_choice_v4_movie_observers_real1,6172b8bcb0ca871db44b71c9,0,Plot,1,,,ew_att_rating,5582,,,,,2022-11-17 17:31:27,92149
6172b8bcb0ca871db44b71c9,ma_choice_v4_movie_observers_real1,6172b8bcb0ca871db44b71c9,0,Humor,1,,,ew_att_rating,5582,,,,,2022-11-17 17:31:27,92150
6172b8bcb0ca871db44b71c9,ma_choice_v4_movie_observers_real1,6172b8bcb0ca871db44b71c9,0,Visuals,1,,,ew_att_rating,5582,,,,,2022-11-17 17:31:27,92151
6172b8bcb0ca871db44b71c9,ma_choice_v4_movie_observers_real1,6172b8bcb0ca871db44b71c9,8,good action,72,,,wad_att_rating,3342,,,,,2022-11-17 17:31:35,92152
6172b8bcb0ca871db44b71c9,ma_choice_v4_movie_observers_real1,6172b8bcb0ca871db44b71c9,2,romantic,80,,,wad_att_rating,2077,,,,,2022-11-17 17:31:37,92153
6172b8bcb0ca871db44b71c9,ma_choice_v4_movie_observers_real1,6172b8bcb0ca871db44b71c9,0,artistic,58,,,wad_att_rating,2582,,,,,2022-11-17 17:31:40,92154
6172b8bcb0ca871db44b71c9,ma_choice_v4_movie_observers_real1,6172b8bcb0ca871db44b71c9,1,funny,71,,,wad_att_rating,1510,,,,,2022-11-17 17:31:41,92155
6172b8bcb0ca871db44b71c9,ma_choice_v4_movie_observers_real1,6172b8bcb0ca871db44b71c9,7,awesome soundtrack,54,,,wad_att_rating,1502,,,,,2022-11-17 17:31:43,92156
6172b8bcb0ca871db44b71c9,ma_choice_v4_movie_observers_real1,6172b8bcb0ca871db44b71c9,5,plot,67,,,wad_att_rating,2590,,,,,2022-11-17 17:31:45,92157
6172b8bcb0ca871db44b71c9,ma_choice_v4_movie_observers_real1,6172b8bcb0ca871db44b71c9,3,visual,74,,,wad_att_rating,2062,,,,,2022-11-17 17:31:47,92158
6172b8bcb0ca871db44b71c9,ma_choice_v4_movie_observers_real1,6172b8bcb0ca871db44b71c9,6,dialogue,56,,,wad_att_rating,2566,,,,,2022-11-17 17:31:50,92159
6172b8bcb0ca871db44b71c9,ma_choice_v4_movie_observers_real1,6172b8bcb0ca871db44b71c9,4,great acting,70,,,wad_att_rating,2023,,,,,2022-11-17 17:31:52,92160
614fa2d8176b0317b451cd0f,ma_choice_v4_movie_observers_real1,614fa2d8176b0317b451cd0f,2,romantic,11,,,wad_att_rating,4336,,,,,2022-11-17 17:33:47,92161
614fa2d8176b0317b451cd0f,ma_choice_v4_movie_observers_real1,614fa2d8176b0317b451cd0f,8,good action,20,,,wad_att_rating,2875,,,,,2022-11-17 17:33:50,92162
614fa2d8176b0317b451cd0f,ma_choice_v4_movie_observers_real1,614fa2d8176b0317b451cd0f,0,artistic,10,,,wad_att_rating,3190,,,,,2022-11-17 17:33:54,92163
614fa2d8176b0317b451cd0f,ma_choice_v4_movie_observers_real1,614fa2d8176b0317b451cd0f,7,awesome soundtrack,12,,,wad_att_rating,3304,,,,,2022-11-17 17:33:57,92164
614fa2d8176b0317b451cd0f,ma_choice_v4_movie_observers_real1,614fa2d8176b0317b451cd0f,1,funny,21,,,wad_att_rating,3330,,,,,2022-11-17 17:34:00,92165
614fa2d8176b0317b451cd0f,ma_choice_v4_movie_observers_real1,614fa2d8176b0317b451cd0f,5,plot,60,,,wad_att_rating,5913,,,,,2022-11-17 17:34:06,92166
614fa2d8176b0317b451cd0f,ma_choice_v4_movie_observers_real1,614fa2d8176b0317b451cd0f,3,visual,29,,,wad_att_rating,3339,,,,,2022-11-17 17:34:09,92167
6172b8bcb0ca871db44b71c9,ma_choice_v4_movie_observers_real1,6172b8bcb0ca871db44b71c9,0,visual,1,Very Bad,Very Good,direction,20040,,,,,2022-11-17 17:34:12,92168
614fa2d8176b0317b451cd0f,ma_choice_v4_movie_observers_real1,614fa2d8176b0317b451cd0f,6,dialogue,29,,,wad_att_rating,2749,,,,,2022-11-17 17:34:12,92169
614fa2d8176b0317b451cd0f,ma_choice_v4_movie_observers_real1,614fa2d8176b0317b451cd0f,4,great acting,25,,,wad_att_rating,2426,,,,,2022-11-17 17:34:15,92170
610ad34844dd2b51bf5d87f5,ma_choice_v4_movie_observers_real1,610ad34844dd2b51bf5d87f5,0,dialogue,1,Very Bad,Very Good,direction,6391,,,,,2022-11-17 17:34:17,92171
610ad34844dd2b51bf5d87f5,ma_choice_v4_movie_observers_real1,610ad34844dd2b51bf5d87f5,0,dialogue,1,Very Bad,Bad,direction,5310,,,,,2022-11-17 17:34:23,92172
610ad34844dd2b51bf5d87f5,ma_choice_v4_movie_observers_real1,610ad34844dd2b51bf5d87f5,0,dialogue,1,Bad,Moderate,direction,5206,,,,,2022-11-17 17:34:28,92173
610ad34844dd2b51bf5d87f5,ma_choice_v4_movie_observers_real1,610ad34844dd2b51bf5d87f5,0,dialogue,1,Moderate,Good,direction,2774,,,,,2022-11-17 17:34:31,92174
610ad34844dd2b51bf5d87f5,ma_choice_v4_movie_observers_real1,610ad34844dd2b51bf5d87f5,0,dialogue,1,Good,Very Good,direction,3342,,,,,2022-11-17 17:34:34,92175
6172b8bcb0ca871db44b71c9,ma_choice_v4_movie_observers_real1,6172b8bcb0ca871db44b71c9,0,visual,1,Very Bad,Bad,direction,23349,,,,,2022-11-17 17:34:35,92176
610ad34844dd2b51bf5d87f5,ma_choice_v4_movie_observers_real1,610ad34844dd2b51bf5d87f5,1,artistic,1,Very Bad,Very Good,direction,3175,,,,,2022-11-17 17:34:39,92177
6172b8bcb0ca871db44b71c9,ma_choice_v4_movie_observers_real1,6172b8bcb0ca871db44b71c9,0,visual,1,Bad,Moderate,direction,4975,,,,,2022-11-17 17:34:40,92178
610ad34844dd2b51bf5d87f5,ma_choice_v4_movie_observers_real1,610ad34844dd2b51bf5d87f5,1,artistic,1,Very Bad,Bad,direction,4758,,,,,2022-11-17 17:34:43,92179
614fa2d8176b0317b451cd0f,ma_choice_v4_movie_observers_real1,614fa2d8176b0317b451cd0f,0,Action Scenes,1,,,lex_att_rating,21779,,,,,2022-11-17 17:34:46,92180
610ad34844dd2b51bf5d87f5,ma_choice_v4_movie_observers_real1,610ad34844dd2b51bf5d87f5,1,artistic,1,Bad,Moderate,direction,2734,,,,,2022-11-17 17:34:46,92181
6172b8bcb0ca871db44b71c9,ma_choice_v4_movie_observers_real1,6172b8bcb0ca871db44b71c9,0,visual,1,Moderate,Good,direction,6301,,,,,2022-11-17 17:34:46,92182
610ad34844dd2b51bf5d87f5,ma_choice_v4_movie_observers_real1,610ad34844dd2b51bf5d87f5,1,artistic,0,Moderate,Good,direction,2766,,,,,2022-11-17 17:34:49,92183
6172b8bcb0ca871db44b71c9,ma_choice_v4_movie_observers_real1,6172b8bcb0ca871db44b71c9,0,visual,1,Good,Very Good,direction,4599,,,,,2022-11-17 17:34:51,92184
610ad34844dd2b51bf5d87f5,ma_choice_v4_movie_observers_real1,610ad34844dd2b51bf5d87f5,1,artistic,1,Good,Very Good,direction,3422,,,,,2022-11-17 17:34:52,92185
610ad34844dd2b51bf5d87f5,ma_choice_v4_movie_observers_real1,610ad34844dd2b51bf5d87f5,2,visual,1,Very Bad,Very Good,direction,2294,,,,,2022-11-17 17:34:56,92186
610ad34844dd2b51bf5d87f5,ma_choice_v4_movie_observers_real1,610ad34844dd2b51bf5d87f5,2,visual,1,Very Bad,Bad,direction,2062,,,,,2022-11-17 17:34:58,92187
610ad34844dd2b51bf5d87f5,ma_choice_v4_movie_observers_real1,610ad34844dd2b51bf5d87f5,2,visual,1,Bad,Moderate,direction,2606,,,,,2022-11-17 17:35:00,92188
610ad34844dd2b51bf5d87f5,ma_choice_v4_movie_observers_real1,610ad34844dd2b51bf5d87f5,2,visual,0,Moderate,Good,direction,2062,,,,,2022-11-17 17:35:03,92189
610ad34844dd2b51bf5d87f5,ma_choice_v4_movie_observers_real1,610ad34844dd2b51bf5d87f5,2,visual,1,Good,Very Good,direction,1542,,,,,2022-11-17 17:35:04,92190
6172b8bcb0ca871db44b71c9,ma_choice_v4_movie_observers_real1,6172b8bcb0ca871db44b71c9,1,funny,1,Very Bad,Very Good,direction,6159,,,,,2022-11-17 17:35:05,92191
610ad34844dd2b51bf5d87f5,ma_choice_v4_movie_observers_real1,610ad34844dd2b51bf5d87f5,3,funny,1,Very Bad,Very Good,direction,2039,,,,,2022-11-17 17:35:07,92192
610ad34844dd2b51bf5d87f5,ma_choice_v4_movie_observers_real1,610ad34844dd2b51bf5d87f5,3,funny,1,Very Bad,Bad,direction,1662,,,,,2022-11-17 17:35:09,92193
6172b8bcb0ca871db44b71c9,ma_choice_v4_movie_observers_real1,6172b8bcb0ca871db44b71c9,1,funny,1,Very Bad,Bad,direction,5222,,,,,2022-11-17 17:35:10,92194
5a0a49e05d06850001affa34,ma_choice_v4_movie_observers_real1,5a0a49e05d06850001affa34,0,funny,1,Very Bad,Very Good,direction,15627,,,,,2022-11-17 17:35:11,92195
610ad34844dd2b51bf5d87f5,ma_choice_v4_movie_observers_real1,610ad34844dd2b51bf5d87f5,3,funny,0,Bad,Moderate,direction,2390,,,,,2022-11-17 17:35:12,92196
610ad34844dd2b51bf5d87f5,ma_choice_v4_movie_observers_real1,610ad34844dd2b51bf5d87f5,3,funny,0,Moderate,Good,direction,2494,,,,,2022-11-17 17:35:14,92197
6172b8bcb0ca871db44b71c9,ma_choice_v4_movie_observers_real1,6172b8bcb0ca871db44b71c9,1,funny,1,Bad,Moderate,direction,3852,,,,,2022-11-17 17:35:14,92198
610ad34844dd2b51bf5d87f5,ma_choice_v4_movie_observers_real1,610ad34844dd2b51bf5d87f5,3,funny,1,Good,Very Good,direction,1934,,,,,2022-11-17 17:35:15,92199
614fa2d8176b0317b451cd0f,ma_choice_v4_movie_observers_real1,614fa2d8176b0317b451cd0f,0,Humor,1,,,ew_att_rating,23783,,,,,2022-11-17 17:35:16,92200
614fa2d8176b0317b451cd0f,ma_choice_v4_movie_observers_real1,614fa2d8176b0317b451cd0f,0,Visuals,1,,,ew_att_rating,23783,,,,,2022-11-17 17:35:16,92201
614fa2d8176b0317b451cd0f,ma_choice_v4_movie_observers_real1,614fa2d8176b0317b451cd0f,0,Acting,1,,,ew_att_rating,23783,,,,,2022-11-17 17:35:16,92202
614fa2d8176b0317b451cd0f,ma_choice_v4_movie_observers_real1,614fa2d8176b0317b451cd0f,0,Plot,1,,,ew_att_rating,23783,,,,,2022-11-17 17:35:16,92203
614fa2d8176b0317b451cd0f,ma_choice_v4_movie_observers_real1,614fa2d8176b0317b451cd0f,0,Dialogue,1,,,ew_att_rating,23783,,,,,2022-11-17 17:35:16,92204
610ad34844dd2b51bf5d87f5,ma_choice_v4_movie_observers_real1,610ad34844dd2b51bf5d87f5,4,awesome soundtrack,1,Very Bad,Very Good,direction,2639,,,,,2022-11-17 17:35:19,92205
610ad34844dd2b51bf5d87f5,ma_choice_v4_movie_observers_real1,610ad34844dd2b51bf5d87f5,4,awesome soundtrack,1,Very Bad,Bad,direction,1958,,,,,2022-11-17 17:35:22,92206
5a0a49e05d06850001affa34,ma_choice_v4_movie_observers_real1,5a0a49e05d06850001affa34,0,funny,1,Very Bad,Bad,direction,12051,,,,,2022-11-17 17:35:23,92207
62ec1607cf0be424ae3e29d1,ma_choice_v4_movie_observers_real1,62ec1607cf0be424ae3e29d1,0,awesome soundtrack,1,Very Bad,Very Good,direction,11567,,,,,2022-11-17 17:35:23,92208
610ad34844dd2b51bf5d87f5,ma_choice_v4_movie_observers_real1,610ad34844dd2b51bf5d87f5,4,awesome soundtrack,0,Bad,Moderate,direction,2974,,,,,2022-11-17 17:35:24,92209
6172b8bcb0ca871db44b71c9,ma_choice_v4_movie_observers_real1,6172b8bcb0ca871db44b71c9,1,funny,1,Moderate,Good,direction,10509,,,,,2022-11-17 17:35:25,92210
610ad34844dd2b51bf5d87f5,ma_choice_v4_movie_observers_real1,610ad34844dd2b51bf5d87f5,4,awesome soundtrack,1,Moderate,Good,direction,1678,,,,,2022-11-17 17:35:26,92211
610ad34844dd2b51bf5d87f5,ma_choice_v4_movie_observers_real1,610ad34844dd2b51bf5d87f5,4,awesome soundtrack,1,Good,Very Good,direction,1430,,,,,2022-11-17 17:35:27,92212
6172b8bcb0ca871db44b71c9,ma_choice_v4_movie_observers_real1,6172b8bcb0ca871db44b71c9,1,funny,1,Good,Very Good,direction,3126,,,,,2022-11-17 17:35:28,92213
5a0a49e05d06850001affa34,ma_choice_v4_movie_observers_real1,5a0a49e05d06850001affa34,0,funny,1,Bad,Moderate,direction,6715,,,,,2022-11-17 17:35:30,92214
610ad34844dd2b51bf5d87f5,ma_choice_v4_movie_observers_real1,610ad34844dd2b51bf5d87f5,5,plot,1,Very Bad,Very Good,direction,2639,,,,,2022-11-17 17:35:31,92215
6172b8bcb0ca871db44b71c9,ma_choice_v4_movie_observers_real1,6172b8bcb0ca871db44b71c9,2,good action,1,Very Bad,Very Good,direction,3831,,,,,2022-11-17 17:35:33,92216
610ad34844dd2b51bf5d87f5,ma_choice_v4_movie_observers_real1,610ad34844dd2b51bf5d87f5,5,plot,1,Very Bad,Bad,direction,2157,,,,,2022-11-17 17:35:33,92217
62ec1607cf0be424ae3e29d1,ma_choice_v4_movie_observers_real1,62ec1607cf0be424ae3e29d1,0,awesome soundtrack,1,Very Bad,Bad,direction,12190,,,,,2022-11-17 17:35:36,92218
6172b8bcb0ca871db44b71c9,ma_choice_v4_movie_observers_real1,6172b8bcb0ca871db44b71c9,2,good action,1,Very Bad,Bad,direction,3166,,,,,2022-11-17 17:35:36,92219
610ad34844dd2b51bf5d87f5,ma_choice_v4_movie_observers_real1,610ad34844dd2b51bf5d87f5,5,plot,1,Bad,Moderate,direction,3526,,,,,2022-11-17 17:35:37,92220
610ad34844dd2b51bf5d87f5,ma_choice_v4_movie_observers_real1,610ad34844dd2b51bf5d87f5,5,plot,1,Moderate,Good,direction,1222,,,,,2022-11-17 17:35:38,92221
5a0a49e05d06850001affa34,ma_choice_v4_movie_observers_real1,5a0a49e05d06850001affa34,0,funny,1,Moderate,Good,direction,9328,,,,,2022-11-17 17:35:39,92222
610ad34844dd2b51bf5d87f5,ma_choice_v4_movie_observers_real1,610ad34844dd2b51bf5d87f5,5,plot,1,Good,Very Good,direction,1678,,,,,2022-11-17 17:35:40,92223
6172b8bcb0ca871db44b71c9,ma_choice_v4_movie_observers_real1,6172b8bcb0ca871db44b71c9,2,good action,1,Bad,Moderate,direction,2142,,,,,2022-11-17 17:35:40,92224
6172b8bcb0ca871db44b71c9,ma_choice_v4_movie_observers_real1,6172b8bcb0ca871db44b71c9,2,good action,1,Moderate,Good,direction,2062,,,,,2022-11-17 17:35:40,92225
6172b8bcb0ca871db44b71c9,ma_choice_v4_movie_observers_real1,6172b8bcb0ca871db44b71c9,2,good action,1,Good,Very Good,direction,2589,,,,,2022-11-17 17:35:43,92226
610ad34844dd2b51bf5d87f5,ma_choice_v4_movie_observers_real1,610ad34844dd2b51bf5d87f5,6,romantic,1,Very Bad,Very Good,direction,3959,,,,,2022-11-17 17:35:45,92227
5a0a49e05d06850001affa34,ma_choice_v4_movie_observers_real1,5a0a49e05d06850001affa34,0,funny,1,Good,Very Good,direction,5964,,,,,2022-11-17 17:35:45,92228
610ad34844dd2b51bf5d87f5,ma_choice_v4_movie_observers_real1,610ad34844dd2b51bf5d87f5,6,romantic,1,Very Bad,Bad,direction,1814,,,,,2022-11-17 17:35:46,92229
62ec1607cf0be424ae3e29d1,ma_choice_v4_movie_observers_real1,62ec1607cf0be424ae3e29d1,0,awesome soundtrack,1,Bad,Moderate,direction,11438,,,,,2022-11-17 17:35:47,92230
6172b8bcb0ca871db44b71c9,ma_choice_v4_movie_observers_real1,6172b8bcb0ca871db44b71c9,3,romantic,1,Very Bad,Very Good,direction,1735,,,,,2022-11-17 17:35:47,92231
610ad34844dd2b51bf5d87f5,ma_choice_v4_movie_observers_real1,610ad34844dd2b51bf5d87f5,6,romantic,0,Bad,Moderate,direction,2446,,,,,2022-11-17 17:35:49,92232
6172b8bcb0ca871db44b71c9,ma_choice_v4_movie_observers_real1,6172b8bcb0ca871db44b71c9,3,romantic,1,Very Bad,Bad,direction,2694,,,,,2022-11-17 17:35:50,92233
6172b8bcb0ca871db44b71c9,ma_choice_v4_movie_observers_real1,6172b8bcb0ca871db44b71c9,3,romantic,1,Bad,Moderate,direction,1502,,,,,2022-11-17 17:35:51,92234
614fa2d8176b0317b451cd0f,ma_choice_v4_movie_observers_real1,614fa2d8176b0317b451cd0f,0,visual,0,Very Bad,Very Good,direction,8054,,,,,2022-11-17 17:35:52,92235
610ad34844dd2b51bf5d87f5,ma_choice_v4_movie_observers_real1,610ad34844dd2b51bf5d87f5,6,romantic,0,Moderate,Good,direction,2294,,,,,2022-11-17 17:35:52,92236
6172b8bcb0ca871db44b71c9,ma_choice_v4_movie_observers_real1,6172b8bcb0ca871db44b71c9,3,romantic,0,Moderate,Good,direction,1687,,,,,2022-11-17 17:35:53,92237
5a0a49e05d06850001affa34,ma_choice_v4_movie_observers_real1,5a0a49e05d06850001affa34,1,romantic,1,Very Bad,Very Good,direction,6527,,,,,2022-11-17 17:35:53,92238
610ad34844dd2b51bf5d87f5,ma_choice_v4_movie_observers_real1,610ad34844dd2b51bf5d87f5,6,romantic,1,Good,Very Good,direction,2854,,,,,2022-11-17 17:35:54,92239
62ec1607cf0be424ae3e29d1,ma_choice_v4_movie_observers_real1,62ec1607cf0be424ae3e29d1,0,awesome soundtrack,1,Moderate,Good,direction,7342,,,,,2022-11-17 17:35:54,92240
6172b8bcb0ca871db44b71c9,ma_choice_v4_movie_observers_real1,6172b8bcb0ca871db44b71c9,3,romantic,1,Good,Very Good,direction,2638,,,,,2022-11-17 17:35:56,92241
614fa2d8176b0317b451cd0f,ma_choice_v4_movie_observers_real1,614fa2d8176b0317b451cd0f,0,visual,0,Very Bad,Bad,direction,4519,,,,,2022-11-17 17:35:56,92242
5a0a49e05d06850001affa34,ma_choice_v4_movie_observers_real1,5a0a49e05d06850001affa34,1,romantic,1,Very Bad,Bad,direction,4744,,,,,2022-11-17 17:35:58,92243
614fa2d8176b0317b451cd0f,ma_choice_v4_movie_observers_real1,614fa2d8176b0317b451cd0f,0,visual,0,Bad,Moderate,direction,2027,,,,,2022-11-17 17:35:58,92244
610ad34844dd2b51bf5d87f5,ma_choice_v4_movie_observers_real1,610ad34844dd2b51bf5d87f5,7,good action,1,Very Bad,Very Good,direction,4095,,,,,2022-11-17 17:35:59,92245
62ec1607cf0be424ae3e29d1,ma_choice_v4_movie_observers_real1,62ec1607cf0be424ae3e29d1,0,awesome soundtrack,1,Good,Very Good,direction,5046,,,,,2022-11-17 17:35:59,92246
614fa2d8176b0317b451cd0f,ma_choice_v4_movie_observers_real1,614fa2d8176b0317b451cd0f,0,visual,1,Moderate,Good,direction,3358,,,,,2022-11-17 17:36:02,92247
610ad34844dd2b51bf5d87f5,ma_choice_v4_movie_observers_real1,610ad34844dd2b51bf5d87f5,7,good action,1,Very Bad,Bad,direction,3174,,,,,2022-11-17 17:36:02,92248
5a0a49e05d06850001affa34,ma_choice_v4_movie_observers_real1,5a0a49e05d06850001affa34,1,romantic,1,Bad,Moderate,direction,4752,,,,,2022-11-17 17:36:03,92249
614fa2d8176b0317b451cd0f,ma_choice_v4_movie_observers_real1,614fa2d8176b0317b451cd0f,0,visual,1,Good,Very Good,direction,1734,,,,,2022-11-17 17:36:04,92250
610ad34844dd2b51bf5d87f5,ma_choice_v4_movie_observers_real1,610ad34844dd2b51bf5d87f5,7,good action,0,Bad,Moderate,direction,2118,,,,,2022-11-17 17:36:05,92251
610ad34844dd2b51bf5d87f5,ma_choice_v4_movie_observers_real1,610ad34844dd2b51bf5d87f5,7,good action,1,Moderate,Good,direction,3134,,,,,2022-11-17 17:36:08,92252
6172b8bcb0ca871db44b71c9,ma_choice_v4_movie_observers_real1,6172b8bcb0ca871db44b71c9,4,plot,1,Very Bad,Very Good,direction,3752,,,,,2022-11-17 17:36:08,92253
5a0a49e05d06850001affa34,ma_choice_v4_movie_observers_real1,5a0a49e05d06850001affa34,1,romantic,1,Moderate,Good,direction,6188,,,,,2022-11-17 17:36:09,92254
610ad34844dd2b51bf5d87f5,ma_choice_v4_movie_observers_real1,610ad34844dd2b51bf5d87f5,7,good action,1,Good,Very Good,direction,2238,,,,,2022-11-17 17:36:10,92255
62ec1607cf0be424ae3e29d1,ma_choice_v4_movie_observers_real1,62ec1607cf0be424ae3e29d1,1,artistic,1,Very Bad,Very Good,direction,8647,,,,,2022-11-17 17:36:10,92256
6172b8bcb0ca871db44b71c9,ma_choice_v4_movie_observers_real1,6172b8bcb0ca871db44b71c9,4,plot,0,Very Bad,Bad,direction,2277,,,,,2022-11-17 17:36:11,92257
5a0a49e05d06850001affa34,ma_choice_v4_movie_observers_real1,5a0a49e05d06850001affa34,1,romantic,1,Good,Very Good,direction,2229,,,,,2022-11-17 17:36:11,92258
614fa2d8176b0317b451cd0f,ma_choice_v4_movie_observers_real1,614fa2d8176b0317b451cd0f,1,plot,1,Very Bad,Very Good,direction,7254,,,,,2022-11-17 17:36:12,92259
6172b8bcb0ca871db44b71c9,ma_choice_v4_movie_observers_real1,6172b8bcb0ca871db44b71c9,4,plot,1,Bad,Moderate,direction,2519,,,,,2022-11-17 17:36:13,92260
614fa2d8176b0317b451cd0f,ma_choice_v4_movie_observers_real1,614fa2d8176b0317b451cd0f,1,plot,1,Very Bad,Bad,direction,1518,,,,,2022-11-17 17:36:13,92261
610ad34844dd2b51bf5d87f5,ma_choice_v4_movie_observers_real1,610ad34844dd2b51bf5d87f5,8,great acting,1,Very Bad,Very Good,direction,2863,,,,,2022-11-17 17:36:14,92262
6172b8bcb0ca871db44b71c9,ma_choice_v4_movie_observers_real1,6172b8bcb0ca871db44b71c9,4,plot,1,Moderate,Good,direction,1389,,,,,2022-11-17 17:36:14,92263
614fa2d8176b0317b451cd0f,ma_choice_v4_movie_observers_real1,614fa2d8176b0317b451cd0f,1,plot,1,Bad,Moderate,direction,1594,,,,,2022-11-17 17:36:15,92264
62ec1607cf0be424ae3e29d1,ma_choice_v4_movie_observers_real1,62ec1607cf0be424ae3e29d1,1,artistic,1,Very Bad,Bad,direction,5175,,,,,2022-11-17 17:36:16,92265
5a0a49e05d06850001affa34,ma_choice_v4_movie_observers_real1,5a0a49e05d06850001affa34,2,great acting,1,Very Bad,Very Good,direction,3015,,,,,2022-11-17 17:36:16,92266
6172b8bcb0ca871db44b71c9,ma_choice_v4_movie_observers_real1,6172b8bcb0ca871db44b71c9,4,plot,1,Good,Very Good,direction,1318,,,,,2022-11-17 17:36:16,92267
610ad34844dd2b51bf5d87f5,ma_choice_v4_movie_observers_real1,610ad34844dd2b51bf5d87f5,8,great acting,1,Very Bad,Bad,direction,2174,,,,,2022-11-17 17:36:16,92268
614fa2d8176b0317b451cd0f,ma_choice_v4_movie_observers_real1,614fa2d8176b0317b451cd0f,1,plot,1,Moderate,Good,direction,1544,,,,,2022-11-17 17:36:16,92269
614fa2d8176b0317b451cd0f,ma_choice_v4_movie_observers_real1,614fa2d8176b0317b451cd0f,1,plot,1,Good,Very Good,direction,983,,,,,2022-11-17 17:36:17,92270
610ad34844dd2b51bf5d87f5,ma_choice_v4_movie_observers_real1,610ad34844dd2b51bf5d87f5,8,great acting,1,Bad,Moderate,direction,1670,,,,,2022-11-17 17:36:18,92271
5a0a49e05d06850001affa34,ma_choice_v4_movie_observers_real1,5a0a49e05d06850001affa34,2,great acting,1,Very Bad,Bad,direction,1848,,,,,2022-11-17 17:36:18,92272
62ec1607cf0be424ae3e29d1,ma_choice_v4_movie_observers_real1,62ec1607cf0be424ae3e29d1,1,artistic,1,Bad,Moderate,direction,2982,,,,,2022-11-17 17:36:18,92273
610ad34844dd2b51bf5d87f5,ma_choice_v4_movie_observers_real1,610ad34844dd2b51bf5d87f5,8,great acting,1,Moderate,Good,direction,1566,,,,,2022-11-17 17:36:19,92274
5a0a49e05d06850001affa34,ma_choice_v4_movie_observers_real1,5a0a49e05d06850001affa34,2,great acting,1,Bad,Moderate,direction,1659,,,,,2022-11-17 17:36:19,92275
610ad34844dd2b51bf5d87f5,ma_choice_v4_movie_observers_real1,610ad34844dd2b51bf5d87f5,8,great acting,1,Good,Very Good,direction,1326,,,,,2022-11-17 17:36:20,92276
5a0a49e05d06850001affa34,ma_choice_v4_movie_observers_real1,5a0a49e05d06850001affa34,2,great acting,1,Moderate,Good,direction,1370,,,,,2022-11-17 17:36:21,92277
62ec1607cf0be424ae3e29d1,ma_choice_v4_movie_observers_real1,62ec1607cf0be424ae3e29d1,1,artistic,1,Moderate,Good,direction,2367,,,,,2022-11-17 17:36:21,92278
614fa2d8176b0317b451cd0f,ma_choice_v4_movie_observers_real1,614fa2d8176b0317b451cd0f,2,artistic,0,Very Bad,Very Good,direction,2617,,,,,2022-11-17 17:36:21,92279
614fa2d8176b0317b451cd0f,ma_choice_v4_movie_observers_real1,614fa2d8176b0317b451cd0f,2,artistic,0,Very Bad,Bad,direction,990,,,,,2022-11-17 17:36:22,92280
6172b8bcb0ca871db44b71c9,ma_choice_v4_movie_observers_real1,6172b8bcb0ca871db44b71c9,5,artistic,1,Very Bad,Very Good,direction,4928,,,,,2022-11-17 17:36:22,92281
5a0a49e05d06850001affa34,ma_choice_v4_movie_observers_real1,5a0a49e05d06850001affa34,2,great acting,1,Good,Very Good,direction,1519,,,,,2022-11-17 17:36:22,92282
62ec1607cf0be424ae3e29d1,ma_choice_v4_movie_observers_real1,62ec1607cf0be424ae3e29d1,1,artistic,1,Good,Very Good,direction,1566,,,,,2022-11-17 17:36:22,92283
614fa2d8176b0317b451cd0f,ma_choice_v4_movie_observers_real1,614fa2d8176b0317b451cd0f,2,artistic,1,Bad,Moderate,direction,939,,,,,2022-11-17 17:36:23,92284
614fa2d8176b0317b451cd0f,ma_choice_v4_movie_observers_real1,614fa2d8176b0317b451cd0f,2,artistic,1,Moderate,Good,direction,1106,,,,,2022-11-17 17:36:24,92285
6172b8bcb0ca871db44b71c9,ma_choice_v4_movie_observers_real1,6172b8bcb0ca871db44b71c9,5,artistic,1,Very Bad,Bad,direction,2822,,,,,2022-11-17 17:36:25,92286
614fa2d8176b0317b451cd0f,ma_choice_v4_movie_observers_real1,614fa2d8176b0317b451cd0f,2,artistic,1,Good,Very Good,direction,1090,,,,,2022-11-17 17:36:25,92287
6172b8bcb0ca871db44b71c9,ma_choice_v4_movie_observers_real1,6172b8bcb0ca871db44b71c9,5,artistic,1,Bad,Moderate,direction,1646,,,,,2022-11-17 17:36:26,92288
6172b8bcb0ca871db44b71c9,ma_choice_v4_movie_observers_real1,6172b8bcb0ca871db44b71c9,5,artistic,0,Moderate,Good,direction,1846,,,,,2022-11-17 17:36:28,92289
62ec1607cf0be424ae3e29d1,ma_choice_v4_movie_observers_real1,62ec1607cf0be424ae3e29d1,2,good action,1,Very Bad,Very Good,direction,5399,,,,,2022-11-17 17:36:29,92290
614fa2d8176b0317b451cd0f,ma_choice_v4_movie_observers_real1,614fa2d8176b0317b451cd0f,3,romantic,0,Very Bad,Very Good,direction,3615,,,,,2022-11-17 17:36:29,92291
614fa2d8176b0317b451cd0f,ma_choice_v4_movie_observers_real1,614fa2d8176b0317b451cd0f,3,romantic,1,Very Bad,Bad,direction,978,,,,,2022-11-17 17:36:30,92292
6172b8bcb0ca871db44b71c9,ma_choice_v4_movie_observers_real1,6172b8bcb0ca871db44b71c9,5,artistic,1,Good,Very Good,direction,1991,,,,,2022-11-17 17:36:30,92293
614fa2d8176b0317b451cd0f,ma_choice_v4_movie_observers_real1,614fa2d8176b0317b451cd0f,3,romantic,1,Bad,Moderate,direction,1214,,,,,2022-11-17 17:36:32,92294
62ec1607cf0be424ae3e29d1,ma_choice_v4_movie_observers_real1,62ec1607cf0be424ae3e29d1,2,good action,1,Very Bad,Bad,direction,2566,,,,,2022-11-17 17:36:32,92295
5a0a49e05d06850001affa34,ma_choice_v4_movie_observers_real1,5a0a49e05d06850001affa34,3,good action,1,Very Bad,Very Good,direction,8851,,,,,2022-11-17 17:36:32,92296
614fa2d8176b0317b451cd0f,ma_choice_v4_movie_observers_real1,614fa2d8176b0317b451cd0f,3,romantic,1,Moderate,Good,direction,1806,,,,,2022-11-17 17:36:33,92297
6172b8bcb0ca871db44b71c9,ma_choice_v4_movie_observers_real1,6172b8bcb0ca871db44b71c9,6,awesome soundtrack,1,Very Bad,Very Good,direction,1984,,,,,2022-11-17 17:36:34,92298
62ec1607cf0be424ae3e29d1,ma_choice_v4_movie_observers_real1,62ec1607cf0be424ae3e29d1,2,good action,1,Bad,Moderate,direction,2350,,,,,2022-11-17 17:36:34,92299
5a0a49e05d06850001affa34,ma_choice_v4_movie_observers_real1,5a0a49e05d06850001affa34,3,good action,1,Very Bad,Bad,direction,2018,,,,,2022-11-17 17:36:34,92300
614fa2d8176b0317b451cd0f,ma_choice_v4_movie_observers_real1,614fa2d8176b0317b451cd0f,3,romantic,1,Good,Very Good,direction,1450,,,,,2022-11-17 17:36:35,92301
6172b8bcb0ca871db44b71c9,ma_choice_v4_movie_observers_real1,6172b8bcb0ca871db44b71c9,6,awesome soundtrack,0,Very Bad,Bad,direction,1589,,,,,2022-11-17 17:36:35,92302
5a0a49e05d06850001affa34,ma_choice_v4_movie_observers_real1,5a0a49e05d06850001affa34,3,good action,1,Bad,Moderate,direction,1821,,,,,2022-11-17 17:36:36,92303
6172b8bcb0ca871db44b71c9,ma_choice_v4_movie_observers_real1,6172b8bcb0ca871db44b71c9,6,awesome soundtrack,1,Bad,Moderate,direction,1437,,,,,2022-11-17 17:36:37,92304
62ec1607cf0be424ae3e29d1,ma_choice_v4_movie_observers_real1,62ec1607cf0be424ae3e29d1,2,good action,1,Moderate,Good,direction,3294,,,,,2022-11-17 17:36:37,92305
614fa2d8176b0317b451cd0f,ma_choice_v4_movie_observers_real1,614fa2d8176b0317b451cd0f,4,dialogue,0,Very Bad,Very Good,direction,1842,,,,,2022-11-17 17:36:38,92306
5a0a49e05d06850001affa34,ma_choice_v4_movie_observers_real1,5a0a49e05d06850001affa34,3,good action,1,Moderate,Good,direction,1879,,,,,2022-11-17 17:36:38,92307
6172b8bcb0ca871db44b71c9,ma_choice_v4_movie_observers_real1,6172b8bcb0ca871db44b71c9,6,awesome soundtrack,1,Moderate,Good,direction,1933,,,,,2022-11-17 17:36:39,92308
614fa2d8176b0317b451cd0f,ma_choice_v4_movie_observers_real1,614fa2d8176b0317b451cd0f,4,dialogue,1,Very Bad,Bad,direction,1427,,,,,2022-11-17 17:36:39,92309
62ec1607cf0be424ae3e29d1,ma_choice_v4_movie_observers_real1,62ec1607cf0be424ae3e29d1,2,good action,1,Good,Very Good,direction,2286,,,,,2022-11-17 17:36:40,92310
5a0a49e05d06850001affa34,ma_choice_v4_movie_observers_real1,5a0a49e05d06850001affa34,3,good action,1,Good,Very Good,direction,2240,,,,,2022-11-17 17:36:40,92311
614fa2d8176b0317b451cd0f,ma_choice_v4_movie_observers_real1,614fa2d8176b0317b451cd0f,4,dialogue,1,Bad,Moderate,direction,1246,,,,,2022-11-17 17:36:41,92312
614fa2d8176b0317b451cd0f,ma_choice_v4_movie_observers_real1,614fa2d8176b0317b451cd0f,4,dialogue,1,Moderate,Good,direction,1373,,,,,2022-11-17 17:36:42,92313
6172b8bcb0ca871db44b71c9,ma_choice_v4_movie_observers_real1,6172b8bcb0ca871db44b71c9,6,awesome soundtrack,1,Good,Very Good,direction,3223,,,,,2022-11-17 17:36:42,92314
5a0a49e05d06850001affa34,ma_choice_v4_movie_observers_real1,5a0a49e05d06850001affa34,4,visual,1,Very Bad,Very Good,direction,1441,,,,,2022-11-17 17:36:42,92315
614fa2d8176b0317b451cd0f,ma_choice_v4_movie_observers_real1,614fa2d8176b0317b451cd0f,4,dialogue,1,Good,Very Good,direction,1117,,,,,2022-11-17 17:36:43,92316
5a0a49e05d06850001affa34,ma_choice_v4_movie_observers_real1,5a0a49e05d06850001affa34,4,visual,1,Very Bad,Bad,direction,1340,,,,,2022-11-17 17:36:44,92317
5a0a49e05d06850001affa34,ma_choice_v4_movie_observers_real1,5a0a49e05d06850001affa34,4,visual,1,Bad,Moderate,direction,1708,,,,,2022-11-17 17:36:46,92318
614fa2d8176b0317b451cd0f,ma_choice_v4_movie_observers_real1,614fa2d8176b0317b451cd0f,5,awesome soundtrack,0,Very Bad,Very Good,direction,1601,,,,,2022-11-17 17:36:46,92319
62ec1607cf0be424ae3e29d1,ma_choice_v4_movie_observers_real1,62ec1607cf0be424ae3e29d1,3,great acting,1,Very Bad,Very Good,direction,2487,,,,,2022-11-17 17:36:47,92320
614fa2d8176b0317b451cd0f,ma_choice_v4_movie_observers_real1,614fa2d8176b0317b451cd0f,5,awesome soundtrack,1,Very Bad,Bad,direction,2238,,,,,2022-11-17 17:36:48,92321
6172b8bcb0ca871db44b71c9,ma_choice_v4_movie_observers_real1,6172b8bcb0ca871db44b71c9,7,great acting,1,Very Bad,Very Good,direction,1607,,,,,2022-11-17 17:36:48,92322
5a0a49e05d06850001affa34,ma_choice_v4_movie_observers_real1,5a0a49e05d06850001affa34,4,visual,1,Moderate,Good,direction,2601,,,,,2022-11-17 17:36:48,92323
62ec1607cf0be424ae3e29d1,ma_choice_v4_movie_observers_real1,62ec1607cf0be424ae3e29d1,3,great acting,1,Very Bad,Bad,direction,2294,,,,,2022-11-17 17:36:49,92324
5a0a49e05d06850001affa34,ma_choice_v4_movie_observers_real1,5a0a49e05d06850001affa34,4,visual,1,Good,Very Good,direction,1389,,,,,2022-11-17 17:36:50,92325
614fa2d8176b0317b451cd0f,ma_choice_v4_movie_observers_real1,614fa2d8176b0317b451cd0f,5,awesome soundtrack,0,Bad,Moderate,direction,1942,,,,,2022-11-17 17:36:50,92326
6172b8bcb0ca871db44b71c9,ma_choice_v4_movie_observers_real1,6172b8bcb0ca871db44b71c9,7,great acting,1,Very Bad,Bad,direction,2340,,,,,2022-11-17 17:36:50,92327
62ec1607cf0be424ae3e29d1,ma_choice_v4_movie_observers_real1,62ec1607cf0be424ae3e29d1,3,great acting,1,Bad,Moderate,direction,2054,,,,,2022-11-17 17:36:51,92328
614fa2d8176b0317b451cd0f,ma_choice_v4_movie_observers_real1,614fa2d8176b0317b451cd0f,5,awesome soundtrack,1,Moderate,Good,direction,1192,,,,,2022-11-17 17:36:51,92329
6172b8bcb0ca871db44b71c9,ma_choice_v4_movie_observers_real1,6172b8bcb0ca871db44b71c9,7,great acting,1,Bad,Moderate,direction,1814,,,,,2022-11-17 17:36:52,92330
5a0a49e05d06850001affa34,ma_choice_v4_movie_observers_real1,5a0a49e05d06850001affa34,5,awesome soundtrack,1,Very Bad,Very Good,direction,1642,,,,,2022-11-17 17:36:52,92331
614fa2d8176b0317b451cd0f,ma_choice_v4_movie_observers_real1,614fa2d8176b0317b451cd0f,5,awesome soundtrack,1,Good,Very Good,direction,1186,,,,,2022-11-17 17:36:52,92332
62ec1607cf0be424ae3e29d1,ma_choice_v4_movie_observers_real1,62ec1607cf0be424ae3e29d1,3,great acting,1,Moderate,Good,direction,1894,,,,,2022-11-17 17:36:53,92333
5a0a49e05d06850001affa34,ma_choice_v4_movie_observers_real1,5a0a49e05d06850001affa34,5,awesome soundtrack,1,Very Bad,Bad,direction,1237,,,,,2022-11-17 17:36:53,92334
6172b8bcb0ca871db44b71c9,ma_choice_v4_movie_observers_real1,6172b8bcb0ca871db44b71c9,7,great acting,1,Moderate,Good,direction,2277,,,,,2022-11-17 17:36:54,92335
62ec1607cf0be424ae3e29d1,ma_choice_v4_movie_observers_real1,62ec1607cf0be424ae3e29d1,3,great acting,1,Good,Very Good,direction,1670,,,,,2022-11-17 17:36:55,92336
5a0a49e05d06850001affa34,ma_choice_v4_movie_observers_real1,5a0a49e05d06850001affa34,5,awesome soundtrack,1,Bad,Moderate,direction,1199,,,,,2022-11-17 17:36:55,92337
5a0a49e05d06850001affa34,ma_choice_v4_movie_observers_real1,5a0a49e05d06850001affa34,5,awesome soundtrack,1,Moderate,Good,direction,1208,,,,,2022-11-17 17:36:56,92338
6172b8bcb0ca871db44b71c9,ma_choice_v4_movie_observers_real1,6172b8bcb0ca871db44b71c9,7,great acting,1,Good,Very Good,direction,1437,,,,,2022-11-17 17:36:56,92339
5a0a49e05d06850001affa34,ma_choice_v4_movie_observers_real1,5a0a49e05d06850001affa34,5,awesome soundtrack,1,Good,Very Good,direction,1560,,,,,2022-11-17 17:36:57,92340
614fa2d8176b0317b451cd0f,ma_choice_v4_movie_observers_real1,614fa2d8176b0317b451cd0f,6,good action,1,Very Bad,Very Good,direction,5572,,,,,2022-11-17 17:36:59,92341
5a0a49e05d06850001affa34,ma_choice_v4_movie_observers_real1,5a0a49e05d06850001affa34,6,dialogue,1,Very Bad,Very Good,direction,1341,,,,,2022-11-17 17:37:00,92342
6172b8bcb0ca871db44b71c9,ma_choice_v4_movie_observers_real1,6172b8bcb0ca871db44b71c9,8,dialogue,1,Very Bad,Very Good,direction,3168,,,,,2022-11-17 17:37:00,92343
5a0a49e05d06850001affa34,ma_choice_v4_movie_observers_real1,5a0a49e05d06850001affa34,6,dialogue,1,Very Bad,Bad,direction,1438,,,,,2022-11-17 17:37:01,92344
614fa2d8176b0317b451cd0f,ma_choice_v4_movie_observers_real1,614fa2d8176b0317b451cd0f,6,good action,1,Very Bad,Bad,direction,3617,,,,,2022-11-17 17:37:02,92345
5a0a49e05d06850001affa34,ma_choice_v4_movie_observers_real1,5a0a49e05d06850001affa34,6,dialogue,1,Bad,Moderate,direction,1299,,,,,2022-11-17 17:37:02,92346
6172b8bcb0ca871db44b71c9,ma_choice_v4_movie_observers_real1,6172b8bcb0ca871db44b71c9,8,dialogue,1,Very Bad,Bad,direction,2454,,,,,2022-11-17 17:37:03,92347
5a0a49e05d06850001affa34,ma_choice_v4_movie_observers_real1,5a0a49e05d06850001affa34,6,dialogue,1,Moderate,Good,direction,2892,,,,,2022-11-17 17:37:05,92348
6172b8bcb0ca871db44b71c9,ma_choice_v4_movie_observers_real1,6172b8bcb0ca871db44b71c9,8,dialogue,1,Bad,Moderate,direction,2479,,,,,2022-11-17 17:37:05,92349
614fa2d8176b0317b451cd0f,ma_choice_v4_movie_observers_real1,614fa2d8176b0317b451cd0f,6,good action,1,Bad,Moderate,direction,4067,,,,,2022-11-17 17:37:06,92350
5a0a49e05d06850001affa34,ma_choice_v4_movie_observers_real1,5a0a49e05d06850001affa34,6,dialogue,1,Good,Very Good,direction,1149,,,,,2022-11-17 17:37:07,92351
6172b8bcb0ca871db44b71c9,ma_choice_v4_movie_observers_real1,6172b8bcb0ca871db44b71c9,8,dialogue,1,Moderate,Good,direction,1247,,,,,2022-11-17 17:37:07,92352
62ec1607cf0be424ae3e29d1,ma_choice_v4_movie_observers_real1,62ec1607cf0be424ae3e29d1,4,visual,1,Very Bad,Very Good,direction,11207,,,,,2022-11-17 17:37:07,92353
6172b8bcb0ca871db44b71c9,ma_choice_v4_movie_observers_real1,6172b8bcb0ca871db44b71c9,8,dialogue,1,Good,Very Good,direction,1797,,,,,2022-11-17 17:37:08,92354
614fa2d8176b0317b451cd0f,ma_choice_v4_movie_observers_real1,614fa2d8176b0317b451cd0f,6,good action,1,Moderate,Good,direction,2127,,,,,2022-11-17 17:37:08,92355
5a0a49e05d06850001affa34,ma_choice_v4_movie_observers_real1,5a0a49e05d06850001affa34,7,plot,1,Very Bad,Very Good,direction,1373,,,,,2022-11-17 17:37:09,92356
62ec1607cf0be424ae3e29d1,ma_choice_v4_movie_observers_real1,62ec1607cf0be424ae3e29d1,4,visual,1,Very Bad,Bad,direction,2454,,,,,2022-11-17 17:37:09,92357
5a0a49e05d06850001affa34,ma_choice_v4_movie_observers_real1,5a0a49e05d06850001affa34,7,plot,1,Very Bad,Bad,direction,1848,,,,,2022-11-17 17:37:11,92358
614fa2d8176b0317b451cd0f,ma_choice_v4_movie_observers_real1,614fa2d8176b0317b451cd0f,6,good action,1,Good,Very Good,direction,2688,,,,,2022-11-17 17:37:11,92359
5a0a49e05d06850001affa34,ma_choice_v4_movie_observers_real1,5a0a49e05d06850001affa34,7,plot,1,Bad,Moderate,direction,1010,,,,,2022-11-17 17:37:12,92360
62ec1607cf0be424ae3e29d1,ma_choice_v4_movie_observers_real1,62ec1607cf0be424ae3e29d1,4,visual,1,Bad,Moderate,direction,2622,,,,,2022-11-17 17:37:12,92361
5a0a49e05d06850001affa34,ma_choice_v4_movie_observers_real1,5a0a49e05d06850001affa34,7,plot,1,Moderate,Good,direction,1649,,,,,2022-11-17 17:37:13,92362
614fa2d8176b0317b451cd0f,ma_choice_v4_movie_observers_real1,614fa2d8176b0317b451cd0f,7,funny,0,Very Bad,Very Good,direction,1536,,,,,2022-11-17 17:37:13,92363
5a0a49e05d06850001affa34,ma_choice_v4_movie_observers_real1,5a0a49e05d06850001affa34,7,plot,1,Good,Very Good,direction,1427,,,,,2022-11-17 17:37:15,92364
62ec1607cf0be424ae3e29d1,ma_choice_v4_movie_observers_real1,62ec1607cf0be424ae3e29d1,4,visual,1,Moderate,Good,direction,2926,,,,,2022-11-17 17:37:15,92365
614fa2d8176b0317b451cd0f,ma_choice_v4_movie_observers_real1,614fa2d8176b0317b451cd0f,7,funny,1,Very Bad,Bad,direction,1547,,,,,2022-11-17 17:37:15,92366
614fa2d8176b0317b451cd0f,ma_choice_v4_movie_observers_real1,614fa2d8176b0317b451cd0f,7,funny,1,Bad,Moderate,direction,1151,,,,,2022-11-17 17:37:16,92367
62ec1607cf0be424ae3e29d1,ma_choice_v4_movie_observers_real1,62ec1607cf0be424ae3e29d1,4,visual,1,Good,Very Good,direction,1854,,,,,2022-11-17 17:37:17,92368
5a0a49e05d06850001affa34,ma_choice_v4_movie_observers_real1,5a0a49e05d06850001affa34,8,artistic,1,Very Bad,Very Good,direction,1300,,,,,2022-11-17 17:37:17,92369
614fa2d8176b0317b451cd0f,ma_choice_v4_movie_observers_real1,614fa2d8176b0317b451cd0f,7,funny,1,Moderate,Good,direction,1103,,,,,2022-11-17 17:37:17,92370
5a0a49e05d06850001affa34,ma_choice_v4_movie_observers_real1,5a0a49e05d06850001affa34,8,artistic,1,Very Bad,Bad,direction,1329,,,,,2022-11-17 17:37:18,92371
614fa2d8176b0317b451cd0f,ma_choice_v4_movie_observers_real1,614fa2d8176b0317b451cd0f,7,funny,1,Good,Very Good,direction,1199,,,,,2022-11-17 17:37:18,92372
5a0a49e05d06850001affa34,ma_choice_v4_movie_observers_real1,5a0a49e05d06850001affa34,8,artistic,1,Bad,Moderate,direction,1329,,,,,2022-11-17 17:37:20,92373
5a0a49e05d06850001affa34,ma_choice_v4_movie_observers_real1,5a0a49e05d06850001affa34,8,artistic,1,Moderate,Good,direction,1419,,,,,2022-11-17 17:37:21,92374
614fa2d8176b0317b451cd0f,ma_choice_v4_movie_observers_real1,614fa2d8176b0317b451cd0f,8,great acting,0,Very Bad,Very Good,direction,1986,,,,,2022-11-17 17:37:21,92375
614fa2d8176b0317b451cd0f,ma_choice_v4_movie_observers_real1,614fa2d8176b0317b451cd0f,8,great acting,1,Very Bad,Bad,direction,1021,,,,,2022-11-17 17:37:22,92376
62ec1607cf0be424ae3e29d1,ma_choice_v4_movie_observers_real1,62ec1607cf0be424ae3e29d1,5,romantic,1,Very Bad,Very Good,direction,1391,,,,,2022-11-17 17:37:22,92377
5a0a49e05d06850001affa34,ma_choice_v4_movie_observers_real1,5a0a49e05d06850001affa34,8,artistic,1,Good,Very Good,direction,1529,,,,,2022-11-17 17:37:23,92378
614fa2d8176b0317b451cd0f,ma_choice_v4_movie_observers_real1,614fa2d8176b0317b451cd0f,8,great acting,1,Bad,Moderate,direction,1028,,,,,2022-11-17 17:37:23,92379
62ec1607cf0be424ae3e29d1,ma_choice_v4_movie_observers_real1,62ec1607cf0be424ae3e29d1,5,romantic,1,Very Bad,Bad,direction,1654,,,,,2022-11-17 17:37:24,92380
614fa2d8176b0317b451cd0f,ma_choice_v4_movie_observers_real1,614fa2d8176b0317b451cd0f,8,great acting,1,Moderate,Good,direction,932,,,,,2022-11-17 17:37:24,92381
614fa2d8176b0317b451cd0f,ma_choice_v4_movie_observers_real1,614fa2d8176b0317b451cd0f,8,great acting,1,Good,Very Good,direction,1275,,,,,2022-11-17 17:37:25,92382
62ec1607cf0be424ae3e29d1,ma_choice_v4_movie_observers_real1,62ec1607cf0be424ae3e29d1,5,romantic,1,Bad,Moderate,direction,1726,,,,,2022-11-17 17:37:26,92383
62ec1607cf0be424ae3e29d1,ma_choice_v4_movie_observers_real1,62ec1607cf0be424ae3e29d1,5,romantic,1,Moderate,Good,direction,3566,,,,,2022-11-17 17:37:29,92384
62ec1607cf0be424ae3e29d1,ma_choice_v4_movie_observers_real1,62ec1607cf0be424ae3e29d1,5,romantic,1,Good,Very Good,direction,2622,,,,,2022-11-17 17:37:32,92385
62ec1607cf0be424ae3e29d1,ma_choice_v4_movie_observers_real1,62ec1607cf0be424ae3e29d1,6,funny,1,Very Bad,Very Good,direction,1127,,,,,2022-11-17 17:37:34,92386
62ec1607cf0be424ae3e29d1,ma_choice_v4_movie_observers_real1,62ec1607cf0be424ae3e29d1,6,funny,1,Very Bad,Bad,direction,1374,,,,,2022-11-17 17:37:36,92387
62ec1607cf0be424ae3e29d1,ma_choice_v4_movie_observers_real1,62ec1607cf0be424ae3e29d1,6,funny,1,Bad,Moderate,direction,1094,,,,,2022-11-17 17:37:37,92388
62ec1607cf0be424ae3e29d1,ma_choice_v4_movie_observers_real1,62ec1607cf0be424ae3e29d1,6,funny,1,Moderate,Good,direction,959,,,,,2022-11-17 17:37:38,92389
62ec1607cf0be424ae3e29d1,ma_choice_v4_movie_observers_real1,62ec1607cf0be424ae3e29d1,6,funny,1,Good,Very Good,direction,998,,,,,2022-11-17 17:37:39,92390
62ec1607cf0be424ae3e29d1,ma_choice_v4_movie_observers_real1,62ec1607cf0be424ae3e29d1,7,dialogue,1,Very Bad,Very Good,direction,2655,,,,,2022-11-17 17:37:42,92391
62ec1607cf0be424ae3e29d1,ma_choice_v4_movie_observers_real1,62ec1607cf0be424ae3e29d1,7,dialogue,1,Very Bad,Bad,direction,1182,,,,,2022-11-17 17:37:43,92392
62ec1607cf0be424ae3e29d1,ma_choice_v4_movie_observers_real1,62ec1607cf0be424ae3e29d1,7,dialogue,1,Bad,Moderate,direction,1262,,,,,2022-11-17 17:37:45,92393
62ec1607cf0be424ae3e29d1,ma_choice_v4_movie_observers_real1,62ec1607cf0be424ae3e29d1,7,dialogue,1,Moderate,Good,direction,1215,,,,,2022-11-17 17:37:46,92394
62ec1607cf0be424ae3e29d1,ma_choice_v4_movie_observers_real1,62ec1607cf0be424ae3e29d1,7,dialogue,1,Good,Very Good,direction,1142,,,,,2022-11-17 17:37:47,92395
62ec1607cf0be424ae3e29d1,ma_choice_v4_movie_observers_real1,62ec1607cf0be424ae3e29d1,8,plot,1,Very Bad,Very Good,direction,1319,,,,,2022-11-17 17:37:49,92396
62ec1607cf0be424ae3e29d1,ma_choice_v4_movie_observers_real1,62ec1607cf0be424ae3e29d1,8,plot,1,Very Bad,Bad,direction,1158,,,,,2022-11-17 17:37:50,92397
62ec1607cf0be424ae3e29d1,ma_choice_v4_movie_observers_real1,62ec1607cf0be424ae3e29d1,8,plot,1,Bad,Moderate,direction,1038,,,,,2022-11-17 17:37:51,92398
62ec1607cf0be424ae3e29d1,ma_choice_v4_movie_observers_real1,62ec1607cf0be424ae3e29d1,8,plot,1,Moderate,Good,direction,1206,,,,,2022-11-17 17:37:53,92399
62ec1607cf0be424ae3e29d1,ma_choice_v4_movie_observers_real1,62ec1607cf0be424ae3e29d1,8,plot,1,Good,Very Good,direction,2990,,,,,2022-11-17 17:37:56,92400
62dc761564191bc28a87e7c7,ma_choice_v4_movie_observers_real1,62dc761564191bc28a87e7c7,6,dialogue,66,,,wad_att_rating,10184,,,,,2022-11-17 17:38:23,92401
62dc761564191bc28a87e7c7,ma_choice_v4_movie_observers_real1,62dc761564191bc28a87e7c7,1,funny,58,,,wad_att_rating,4465,,,,,2022-11-17 17:38:27,92402
62dc761564191bc28a87e7c7,ma_choice_v4_movie_observers_real1,62dc761564191bc28a87e7c7,2,romantic,62,,,wad_att_rating,4181,,,,,2022-11-17 17:38:31,92403
62dc761564191bc28a87e7c7,ma_choice_v4_movie_observers_real1,62dc761564191bc28a87e7c7,0,artistic,48,,,wad_att_rating,3649,,,,,2022-11-17 17:38:35,92404
62dc761564191bc28a87e7c7,ma_choice_v4_movie_observers_real1,62dc761564191bc28a87e7c7,3,visual,51,,,wad_att_rating,3535,,,,,2022-11-17 17:38:39,92405
62dc761564191bc28a87e7c7,ma_choice_v4_movie_observers_real1,62dc761564191bc28a87e7c7,7,awesome soundtrack,49,,,wad_att_rating,3149,,,,,2022-11-17 17:38:42,92406
62dc761564191bc28a87e7c7,ma_choice_v4_movie_observers_real1,62dc761564191bc28a87e7c7,4,great acting,68,,,wad_att_rating,8732,,,,,2022-11-17 17:38:50,92407
62dc761564191bc28a87e7c7,ma_choice_v4_movie_observers_real1,62dc761564191bc28a87e7c7,5,plot,60,,,wad_att_rating,3734,,,,,2022-11-17 17:38:54,92408
62dc761564191bc28a87e7c7,ma_choice_v4_movie_observers_real1,62dc761564191bc28a87e7c7,8,good action,54,,,wad_att_rating,3669,,,,,2022-11-17 17:38:58,92409
62dc761564191bc28a87e7c7,ma_choice_v4_movie_observers_real1,62dc761564191bc28a87e7c7,0,Visuals,1,,,ew_att_rating,16133,,,,,2022-11-17 17:39:23,92410
62dc761564191bc28a87e7c7,ma_choice_v4_movie_observers_real1,62dc761564191bc28a87e7c7,0,Acting,1,,,ew_att_rating,16133,,,,,2022-11-17 17:39:23,92411
62dc761564191bc28a87e7c7,ma_choice_v4_movie_observers_real1,62dc761564191bc28a87e7c7,0,Creativity,1,,,ew_att_rating,16133,,,,,2022-11-17 17:39:23,92412
62dc761564191bc28a87e7c7,ma_choice_v4_movie_observers_real1,62dc761564191bc28a87e7c7,0,Romantic Scenes,1,,,ew_att_rating,16133,,,,,2022-11-17 17:39:23,92413
62dc761564191bc28a87e7c7,ma_choice_v4_movie_observers_real1,62dc761564191bc28a87e7c7,0,Humor,1,,,ew_att_rating,16133,,,,,2022-11-17 17:39:23,92414
62dc761564191bc28a87e7c7,ma_choice_v4_movie_observers_real1,62dc761564191bc28a87e7c7,0,Soundtrack,1,,,ew_att_rating,16133,,,,,2022-11-17 17:39:23,92415
62dc761564191bc28a87e7c7,ma_choice_v4_movie_observers_real1,62dc761564191bc28a87e7c7,0,Action Scenes,1,,,ew_att_rating,16133,,,,,2022-11-17 17:39:23,92416
62dc761564191bc28a87e7c7,ma_choice_v4_movie_observers_real1,62dc761564191bc28a87e7c7,0,Plot,1,,,ew_att_rating,16133,,,,,2022-11-17 17:39:23,92417
62dc761564191bc28a87e7c7,ma_choice_v4_movie_observers_real1,62dc761564191bc28a87e7c7,0,Dialogue,1,,,ew_att_rating,16133,,,,,2022-11-17 17:39:23,92418
62dc761564191bc28a87e7c7,ma_choice_v4_movie_observers_real1,62dc761564191bc28a87e7c7,0,Dialogue,1,,,lex_att_rating,5181,,,,,2022-11-17 17:39:35,92419
62dc761564191bc28a87e7c7,ma_choice_v4_movie_observers_real1,62dc761564191bc28a87e7c7,0,awesome soundtrack,1,Very Bad,Very Good,direction,11286,,,,,2022-11-17 17:40:21,92420
62dc761564191bc28a87e7c7,ma_choice_v4_movie_observers_real1,62dc761564191bc28a87e7c7,0,awesome soundtrack,1,Very Bad,Bad,direction,7615,,,,,2022-11-17 17:40:28,92421
62dc761564191bc28a87e7c7,ma_choice_v4_movie_observers_real1,62dc761564191bc28a87e7c7,0,awesome soundtrack,1,Bad,Moderate,direction,9335,,,,,2022-11-17 17:40:38,92422
62dc761564191bc28a87e7c7,ma_choice_v4_movie_observers_real1,62dc761564191bc28a87e7c7,0,awesome soundtrack,1,Moderate,Good,direction,8934,,,,,2022-11-17 17:40:47,92423
62dc761564191bc28a87e7c7,ma_choice_v4_movie_observers_real1,62dc761564191bc28a87e7c7,0,awesome soundtrack,1,Good,Very Good,direction,8932,,,,,2022-11-17 17:40:56,92424
62dc761564191bc28a87e7c7,ma_choice_v4_movie_observers_real1,62dc761564191bc28a87e7c7,1,artistic,1,Very Bad,Very Good,direction,9137,,,,,2022-11-17 17:41:07,92425
62dc761564191bc28a87e7c7,ma_choice_v4_movie_observers_real1,62dc761564191bc28a87e7c7,1,artistic,1,Very Bad,Bad,direction,4947,,,,,2022-11-17 17:41:12,92426
62dc761564191bc28a87e7c7,ma_choice_v4_movie_observers_real1,62dc761564191bc28a87e7c7,1,artistic,1,Bad,Moderate,direction,3933,,,,,2022-11-17 17:41:16,92427
62dc761564191bc28a87e7c7,ma_choice_v4_movie_observers_real1,62dc761564191bc28a87e7c7,1,artistic,1,Moderate,Good,direction,4058,,,,,2022-11-17 17:41:20,92428
62dc761564191bc28a87e7c7,ma_choice_v4_movie_observers_real1,62dc761564191bc28a87e7c7,1,artistic,1,Good,Very Good,direction,4203,,,,,2022-11-17 17:41:24,92429
62dc761564191bc28a87e7c7,ma_choice_v4_movie_observers_real1,62dc761564191bc28a87e7c7,2,great acting,1,Very Bad,Very Good,direction,4101,,,,,2022-11-17 17:41:30,92430
62dc761564191bc28a87e7c7,ma_choice_v4_movie_observers_real1,62dc761564191bc28a87e7c7,2,great acting,1,Very Bad,Bad,direction,6017,,,,,2022-11-17 17:41:36,92431
62dc761564191bc28a87e7c7,ma_choice_v4_movie_observers_real1,62dc761564191bc28a87e7c7,2,great acting,1,Bad,Moderate,direction,5133,,,,,2022-11-17 17:41:41,92432
62dc761564191bc28a87e7c7,ma_choice_v4_movie_observers_real1,62dc761564191bc28a87e7c7,2,great acting,1,Moderate,Good,direction,4282,,,,,2022-11-17 17:41:45,92433
62dc761564191bc28a87e7c7,ma_choice_v4_movie_observers_real1,62dc761564191bc28a87e7c7,2,great acting,1,Good,Very Good,direction,2837,,,,,2022-11-17 17:41:48,92434
62dc761564191bc28a87e7c7,ma_choice_v4_movie_observers_real1,62dc761564191bc28a87e7c7,3,dialogue,1,Very Bad,Very Good,direction,2989,,,,,2022-11-17 17:41:52,92435
61006614d4c56450afce3a6b,ma_choice_v4_movie_observers_real1,61006614d4c56450afce3a6b,2,romantic,37,,,wad_att_rating,7239,,,,,2022-11-17 17:41:58,92436
62dc761564191bc28a87e7c7,ma_choice_v4_movie_observers_real1,62dc761564191bc28a87e7c7,3,dialogue,1,Very Bad,Bad,direction,9094,,,,,2022-11-17 17:42:01,92437
61006614d4c56450afce3a6b,ma_choice_v4_movie_observers_real1,61006614d4c56450afce3a6b,4,great acting,49,,,wad_att_rating,5199,,,,,2022-11-17 17:42:03,92438
62dc761564191bc28a87e7c7,ma_choice_v4_movie_observers_real1,62dc761564191bc28a87e7c7,3,dialogue,1,Bad,Moderate,direction,2827,,,,,2022-11-17 17:42:04,92439
62dc761564191bc28a87e7c7,ma_choice_v4_movie_observers_real1,62dc761564191bc28a87e7c7,3,dialogue,1,Moderate,Good,direction,2732,,,,,2022-11-17 17:42:07,92440
62dc761564191bc28a87e7c7,ma_choice_v4_movie_observers_real1,62dc761564191bc28a87e7c7,3,dialogue,1,Good,Very Good,direction,3649,,,,,2022-11-17 17:42:10,92441
61006614d4c56450afce3a6b,ma_choice_v4_movie_observers_real1,61006614d4c56450afce3a6b,1,funny,88,,,wad_att_rating,7882,,,,,2022-11-17 17:42:11,92442
61006614d4c56450afce3a6b,ma_choice_v4_movie_observers_real1,61006614d4c56450afce3a6b,3,visual,61,,,wad_att_rating,2901,,,,,2022-11-17 17:42:14,92443
62dc761564191bc28a87e7c7,ma_choice_v4_movie_observers_real1,62dc761564191bc28a87e7c7,4,good action,1,Very Bad,Very Good,direction,3301,,,,,2022-11-17 17:42:15,92444
61006614d4c56450afce3a6b,ma_choice_v4_movie_observers_real1,61006614d4c56450afce3a6b,8,good action,62,,,wad_att_rating,3136,,,,,2022-11-17 17:42:17,92445
62dc761564191bc28a87e7c7,ma_choice_v4_movie_observers_real1,62dc761564191bc28a87e7c7,4,good action,1,Very Bad,Bad,direction,3598,,,,,2022-11-17 17:42:19,92446
62dc761564191bc28a87e7c7,ma_choice_v4_movie_observers_real1,62dc761564191bc28a87e7c7,4,good action,1,Bad,Moderate,direction,2263,,,,,2022-11-17 17:42:21,92447
62dc761564191bc28a87e7c7,ma_choice_v4_movie_observers_real1,62dc761564191bc28a87e7c7,4,good action,1,Moderate,Good,direction,2952,,,,,2022-11-17 17:42:24,92448
61006614d4c56450afce3a6b,ma_choice_v4_movie_observers_real1,61006614d4c56450afce3a6b,6,dialogue,25,,,wad_att_rating,7255,,,,,2022-11-17 17:42:25,92449
62dc761564191bc28a87e7c7,ma_choice_v4_movie_observers_real1,62dc761564191bc28a87e7c7,4,good action,1,Good,Very Good,direction,2378,,,,,2022-11-17 17:42:26,92450
62dc761564191bc28a87e7c7,ma_choice_v4_movie_observers_real1,62dc761564191bc28a87e7c7,5,funny,1,Very Bad,Very Good,direction,2147,,,,,2022-11-17 17:42:29,92451
61006614d4c56450afce3a6b,ma_choice_v4_movie_observers_real1,61006614d4c56450afce3a6b,5,plot,25,,,wad_att_rating,5207,,,,,2022-11-17 17:42:30,92452
62dc761564191bc28a87e7c7,ma_choice_v4_movie_observers_real1,62dc761564191bc28a87e7c7,5,funny,1,Very Bad,Bad,direction,2049,,,,,2022-11-17 17:42:31,92453
61006614d4c56450afce3a6b,ma_choice_v4_movie_observers_real1,61006614d4c56450afce3a6b,0,artistic,32,,,wad_att_rating,3131,,,,,2022-11-17 17:42:33,92454
62dc761564191bc28a87e7c7,ma_choice_v4_movie_observers_real1,62dc761564191bc28a87e7c7,5,funny,1,Bad,Moderate,direction,2298,,,,,2022-11-17 17:42:34,92455
62dc761564191bc28a87e7c7,ma_choice_v4_movie_observers_real1,62dc761564191bc28a87e7c7,5,funny,1,Moderate,Good,direction,2166,,,,,2022-11-17 17:42:36,92456
61006614d4c56450afce3a6b,ma_choice_v4_movie_observers_real1,61006614d4c56450afce3a6b,7,awesome soundtrack,39,,,wad_att_rating,3668,,,,,2022-11-17 17:42:37,92457
62dc761564191bc28a87e7c7,ma_choice_v4_movie_observers_real1,62dc761564191bc28a87e7c7,5,funny,1,Good,Very Good,direction,3851,,,,,2022-11-17 17:42:40,92458
62dc761564191bc28a87e7c7,ma_choice_v4_movie_observers_real1,62dc761564191bc28a87e7c7,6,visual,1,Very Bad,Very Good,direction,2181,,,,,2022-11-17 17:42:43,92459
62dc761564191bc28a87e7c7,ma_choice_v4_movie_observers_real1,62dc761564191bc28a87e7c7,6,visual,1,Very Bad,Bad,direction,1882,,,,,2022-11-17 17:42:45,92460
62dc761564191bc28a87e7c7,ma_choice_v4_movie_observers_real1,62dc761564191bc28a87e7c7,6,visual,1,Bad,Moderate,direction,3466,,,,,2022-11-17 17:42:48,92461
62dc761564191bc28a87e7c7,ma_choice_v4_movie_observers_real1,62dc761564191bc28a87e7c7,6,visual,1,Moderate,Good,direction,2750,,,,,2022-11-17 17:42:51,92462
62dc761564191bc28a87e7c7,ma_choice_v4_movie_observers_real1,62dc761564191bc28a87e7c7,6,visual,1,Good,Very Good,direction,1917,,,,,2022-11-17 17:42:53,92463
62dc761564191bc28a87e7c7,ma_choice_v4_movie_observers_real1,62dc761564191bc28a87e7c7,7,plot,1,Very Bad,Very Good,direction,2783,,,,,2022-11-17 17:42:57,92464
61006614d4c56450afce3a6b,ma_choice_v4_movie_observers_real1,61006614d4c56450afce3a6b,0,Visuals,1,,,ew_att_rating,16621,,,,,2022-11-17 17:42:59,92465
61006614d4c56450afce3a6b,ma_choice_v4_movie_observers_real1,61006614d4c56450afce3a6b,0,Humor,1,,,ew_att_rating,16621,,,,,2022-11-17 17:42:59,92466
61006614d4c56450afce3a6b,ma_choice_v4_movie_observers_real1,61006614d4c56450afce3a6b,0,Plot,1,,,ew_att_rating,16621,,,,,2022-11-17 17:42:59,92467
62dc761564191bc28a87e7c7,ma_choice_v4_movie_observers_real1,62dc761564191bc28a87e7c7,7,plot,1,Very Bad,Bad,direction,2249,,,,,2022-11-17 17:42:59,92468
62dc761564191bc28a87e7c7,ma_choice_v4_movie_observers_real1,62dc761564191bc28a87e7c7,7,plot,1,Bad,Moderate,direction,3264,,,,,2022-11-17 17:43:02,92469
62dc761564191bc28a87e7c7,ma_choice_v4_movie_observers_real1,62dc761564191bc28a87e7c7,7,plot,1,Moderate,Good,direction,2434,,,,,2022-11-17 17:43:05,92470
62dc761564191bc28a87e7c7,ma_choice_v4_movie_observers_real1,62dc761564191bc28a87e7c7,7,plot,1,Good,Very Good,direction,2349,,,,,2022-11-17 17:43:07,92471
62dc761564191bc28a87e7c7,ma_choice_v4_movie_observers_real1,62dc761564191bc28a87e7c7,8,romantic,1,Very Bad,Very Good,direction,2466,,,,,2022-11-17 17:43:11,92472
61006614d4c56450afce3a6b,ma_choice_v4_movie_observers_real1,61006614d4c56450afce3a6b,0,Humor,1,,,lex_att_rating,3386,,,,,2022-11-17 17:43:12,92473
62dc761564191bc28a87e7c7,ma_choice_v4_movie_observers_real1,62dc761564191bc28a87e7c7,8,romantic,1,Very Bad,Bad,direction,3865,,,,,2022-11-17 17:43:15,92474
62dc761564191bc28a87e7c7,ma_choice_v4_movie_observers_real1,62dc761564191bc28a87e7c7,8,romantic,1,Bad,Moderate,direction,2818,,,,,2022-11-17 17:43:18,92475
62dc761564191bc28a87e7c7,ma_choice_v4_movie_observers_real1,62dc761564191bc28a87e7c7,8,romantic,1,Moderate,Good,direction,2830,,,,,2022-11-17 17:43:20,92476
62dc761564191bc28a87e7c7,ma_choice_v4_movie_observers_real1,62dc761564191bc28a87e7c7,8,romantic,1,Good,Very Good,direction,2214,,,,,2022-11-17 17:43:23,92477
60fd2b7dcea367e25e07479a,ma_choice_v4_movie_observers_real1,60fd2b7dcea367e25e07479a,0,Action Scenes,1,,,lex_att_rating,18583,,,,,2022-11-17 17:45:33,92478
5ddea5f1cf08aae150362282,ma_choice_v4_movie_observers_real1,5ddea5f1cf08aae150362282,0,Acting,1,,,lex_att_rating,3943,,,,,2022-11-17 17:46:24,92479
60fd2b7dcea367e25e07479a,ma_choice_v4_movie_observers_real1,60fd2b7dcea367e25e07479a,2,romantic,74,,,wad_att_rating,44094,,,,,2022-11-17 17:46:28,92480
60fd2b7dcea367e25e07479a,ma_choice_v4_movie_observers_real1,60fd2b7dcea367e25e07479a,7,awesome soundtrack,64,,,wad_att_rating,3621,,,,,2022-11-17 17:46:32,92481
5ddea5f1cf08aae150362282,ma_choice_v4_movie_observers_real1,5ddea5f1cf08aae150362282,8,good action,56,,,wad_att_rating,6042,,,,,2022-11-17 17:46:34,92482
60fd2b7dcea367e25e07479a,ma_choice_v4_movie_observers_real1,60fd2b7dcea367e25e07479a,6,dialogue,71,,,wad_att_rating,3733,,,,,2022-11-17 17:46:36,92483
5ddea5f1cf08aae150362282,ma_choice_v4_movie_observers_real1,5ddea5f1cf08aae150362282,0,artistic,74,,,wad_att_rating,4205,,,,,2022-11-17 17:46:38,92484
60fd2b7dcea367e25e07479a,ma_choice_v4_movie_observers_real1,60fd2b7dcea367e25e07479a,4,great acting,85,,,wad_att_rating,3245,,,,,2022-11-17 17:46:39,92485
5ddea5f1cf08aae150362282,ma_choice_v4_movie_observers_real1,5ddea5f1cf08aae150362282,3,visual,83,,,wad_att_rating,2272,,,,,2022-11-17 17:46:41,92486
5ddea5f1cf08aae150362282,ma_choice_v4_movie_observers_real1,5ddea5f1cf08aae150362282,1,funny,42,,,wad_att_rating,3544,,,,,2022-11-17 17:46:44,92487
60fd2b7dcea367e25e07479a,ma_choice_v4_movie_observers_real1,60fd2b7dcea367e25e07479a,0,artistic,70,,,wad_att_rating,5550,,,,,2022-11-17 17:46:45,92488
5ddea5f1cf08aae150362282,ma_choice_v4_movie_observers_real1,5ddea5f1cf08aae150362282,7,awesome soundtrack,0,,,wad_att_rating,3945,,,,,2022-11-17 17:46:48,92489
60fd2b7dcea367e25e07479a,ma_choice_v4_movie_observers_real1,60fd2b7dcea367e25e07479a,5,plot,57,,,wad_att_rating,4486,,,,,2022-11-17 17:46:49,92490
5ddea5f1cf08aae150362282,ma_choice_v4_movie_observers_real1,5ddea5f1cf08aae150362282,5,plot,60,,,wad_att_rating,4313,,,,,2022-11-17 17:46:52,92491
60fd2b7dcea367e25e07479a,ma_choice_v4_movie_observers_real1,60fd2b7dcea367e25e07479a,8,good action,83,,,wad_att_rating,3317,,,,,2022-11-17 17:46:53,92492
60fd2b7dcea367e25e07479a,ma_choice_v4_movie_observers_real1,60fd2b7dcea367e25e07479a,1,funny,68,,,wad_att_rating,3414,,,,,2022-11-17 17:46:56,92493
5ddea5f1cf08aae150362282,ma_choice_v4_movie_observers_real1,5ddea5f1cf08aae150362282,2,romantic,25,,,wad_att_rating,3815,,,,,2022-11-17 17:46:56,92494
60fd2b7dcea367e25e07479a,ma_choice_v4_movie_observers_real1,60fd2b7dcea367e25e07479a,3,visual,73,,,wad_att_rating,2909,,,,,2022-11-17 17:47:00,92495
5ddea5f1cf08aae150362282,ma_choice_v4_movie_observers_real1,5ddea5f1cf08aae150362282,4,great acting,81,,,wad_att_rating,5969,,,,,2022-11-17 17:47:02,92496
5ddea5f1cf08aae150362282,ma_choice_v4_movie_observers_real1,5ddea5f1cf08aae150362282,6,dialogue,85,,,wad_att_rating,3963,,,,,2022-11-17 17:47:08,92497
5ddea5f1cf08aae150362282,ma_choice_v4_movie_observers_real1,5ddea5f1cf08aae150362282,0,Creativity,1,,,ew_att_rating,10035,,,,,2022-11-17 17:47:24,92498
5ddea5f1cf08aae150362282,ma_choice_v4_movie_observers_real1,5ddea5f1cf08aae150362282,0,Acting,1,,,ew_att_rating,10035,,,,,2022-11-17 17:47:24,92499
5ddea5f1cf08aae150362282,ma_choice_v4_movie_observers_real1,5ddea5f1cf08aae150362282,0,Visuals,1,,,ew_att_rating,10035,,,,,2022-11-17 17:47:24,92500
5ddea5f1cf08aae150362282,ma_choice_v4_movie_observers_real1,5ddea5f1cf08aae150362282,0,Plot,1,,,ew_att_rating,10035,,,,,2022-11-17 17:47:24,92501
5ddea5f1cf08aae150362282,ma_choice_v4_movie_observers_real1,5ddea5f1cf08aae150362282,0,Dialogue,1,,,ew_att_rating,10035,,,,,2022-11-17 17:47:24,92502
5ddea5f1cf08aae150362282,ma_choice_v4_movie_observers_real1,5ddea5f1cf08aae150362282,0,Action Scenes,1,,,ew_att_rating,10035,,,,,2022-11-17 17:47:24,92503
60fd2b7dcea367e25e07479a,ma_choice_v4_movie_observers_real1,60fd2b7dcea367e25e07479a,0,Creativity,1,,,ew_att_rating,28411,,,,,2022-11-17 17:47:31,92504
60fd2b7dcea367e25e07479a,ma_choice_v4_movie_observers_real1,60fd2b7dcea367e25e07479a,0,Acting,1,,,ew_att_rating,28411,,,,,2022-11-17 17:47:31,92505
60fd2b7dcea367e25e07479a,ma_choice_v4_movie_observers_real1,60fd2b7dcea367e25e07479a,0,Action Scenes,1,,,ew_att_rating,28411,,,,,2022-11-17 17:47:31,92506
612274842d4805447451f87b,ma_choice_v4_movie_observers_real1,612274842d4805447451f87b,0,Visuals,1,,,ew_att_rating,46162,,,,,2022-11-17 17:47:45,92507
612274842d4805447451f87b,ma_choice_v4_movie_observers_real1,612274842d4805447451f87b,0,Acting,1,,,ew_att_rating,46162,,,,,2022-11-17 17:47:45,92508
612274842d4805447451f87b,ma_choice_v4_movie_observers_real1,612274842d4805447451f87b,0,Action Scenes,1,,,ew_att_rating,46162,,,,,2022-11-17 17:47:45,92509
612274842d4805447451f87b,ma_choice_v4_movie_observers_real1,612274842d4805447451f87b,0,Dialogue,1,,,ew_att_rating,46162,,,,,2022-11-17 17:47:45,92510
612274842d4805447451f87b,ma_choice_v4_movie_observers_real1,612274842d4805447451f87b,0,Action Scenes,1,,,lex_att_rating,5980,,,,,2022-11-17 17:47:58,92511
5ddea5f1cf08aae150362282,ma_choice_v4_movie_observers_real1,5ddea5f1cf08aae150362282,0,plot,1,Very Bad,Very Good,direction,10605,,,,,2022-11-17 17:47:59,92512
5ddea5f1cf08aae150362282,ma_choice_v4_movie_observers_real1,5ddea5f1cf08aae150362282,0,plot,1,Very Bad,Bad,direction,4843,,,,,2022-11-17 17:48:04,92513
5ddea5f1cf08aae150362282,ma_choice_v4_movie_observers_real1,5ddea5f1cf08aae150362282,0,plot,1,Bad,Moderate,direction,4663,,,,,2022-11-17 17:48:09,92514
612274842d4805447451f87b,ma_choice_v4_movie_observers_real1,612274842d4805447451f87b,6,dialogue,12,,,wad_att_rating,7670,,,,,2022-11-17 17:48:11,92515
5ddea5f1cf08aae150362282,ma_choice_v4_movie_observers_real1,5ddea5f1cf08aae150362282,0,plot,1,Moderate,Good,direction,3012,,,,,2022-11-17 17:48:12,92516
56a68b2d9ce1c0000cf89299,ma_choice_v4_movie_observers_real1,56a68b2d9ce1c0000cf89299,0,funny,1,Very Bad,Very Good,direction,43010,,,,,2022-11-17 17:48:13,92517
5ddea5f1cf08aae150362282,ma_choice_v4_movie_observers_real1,5ddea5f1cf08aae150362282,0,plot,1,Good,Very Good,direction,3313,,,,,2022-11-17 17:48:15,92518
5ddea5f1cf08aae150362282,ma_choice_v4_movie_observers_real1,5ddea5f1cf08aae150362282,1,romantic,1,Very Bad,Very Good,direction,2983,,,,,2022-11-17 17:48:20,92519
5ddea5f1cf08aae150362282,ma_choice_v4_movie_observers_real1,5ddea5f1cf08aae150362282,1,romantic,1,Very Bad,Bad,direction,3103,,,,,2022-11-17 17:48:23,92520
5f933204ec8f5f0df7afa903,ma_choice_v4_movie_observers_real1,5f933204ec8f5f0df7afa903,0,Action Scenes,1,,,ew_att_rating,16117,,,,,2022-11-17 17:48:23,92521
56a68b2d9ce1c0000cf89299,ma_choice_v4_movie_observers_real1,56a68b2d9ce1c0000cf89299,0,funny,1,Very Bad,Bad,direction,11126,,,,,2022-11-17 17:48:24,92522
5ddea5f1cf08aae150362282,ma_choice_v4_movie_observers_real1,5ddea5f1cf08aae150362282,1,romantic,1,Bad,Moderate,direction,2293,,,,,2022-11-17 17:48:25,92523
5ddea5f1cf08aae150362282,ma_choice_v4_movie_observers_real1,5ddea5f1cf08aae150362282,1,romantic,1,Moderate,Good,direction,2682,,,,,2022-11-17 17:48:28,92524
612274842d4805447451f87b,ma_choice_v4_movie_observers_real1,612274842d4805447451f87b,4,great acting,75,,,wad_att_rating,16551,,,,,2022-11-17 17:48:28,92525
56a68b2d9ce1c0000cf89299,ma_choice_v4_movie_observers_real1,56a68b2d9ce1c0000cf89299,0,funny,1,Bad,Moderate,direction,3946,,,,,2022-11-17 17:48:28,92526
5ddea5f1cf08aae150362282,ma_choice_v4_movie_observers_real1,5ddea5f1cf08aae150362282,1,romantic,1,Good,Very Good,direction,2063,,,,,2022-11-17 17:48:30,92527
56a68b2d9ce1c0000cf89299,ma_choice_v4_movie_observers_real1,56a68b2d9ce1c0000cf89299,0,funny,1,Moderate,Good,direction,3571,,,,,2022-11-17 17:48:31,92528
5ddea5f1cf08aae150362282,ma_choice_v4_movie_observers_real1,5ddea5f1cf08aae150362282,2,good action,1,Very Bad,Very Good,direction,1925,,,,,2022-11-17 17:48:33,92529
612274842d4805447451f87b,ma_choice_v4_movie_observers_real1,612274842d4805447451f87b,5,plot,25,,,wad_att_rating,4944,,,,,2022-11-17 17:48:33,92530
5f933204ec8f5f0df7afa903,ma_choice_v4_movie_observers_real1,5f933204ec8f5f0df7afa903,0,Action Scenes,1,,,lex_att_rating,4015,,,,,2022-11-17 17:48:35,92531
5ddea5f1cf08aae150362282,ma_choice_v4_movie_observers_real1,5ddea5f1cf08aae150362282,2,good action,1,Very Bad,Bad,direction,3293,,,,,2022-11-17 17:48:36,92532
5ddea5f1cf08aae150362282,ma_choice_v4_movie_observers_real1,5ddea5f1cf08aae150362282,2,good action,1,Bad,Moderate,direction,1633,,,,,2022-11-17 17:48:38,92533
56a68b2d9ce1c0000cf89299,ma_choice_v4_movie_observers_real1,56a68b2d9ce1c0000cf89299,0,funny,1,Good,Very Good,direction,6430,,,,,2022-11-17 17:48:38,92534
5ddea5f1cf08aae150362282,ma_choice_v4_movie_observers_real1,5ddea5f1cf08aae150362282,2,good action,1,Moderate,Good,direction,1832,,,,,2022-11-17 17:48:39,92535
612274842d4805447451f87b,ma_choice_v4_movie_observers_real1,612274842d4805447451f87b,3,visual,43,,,wad_att_rating,7965,,,,,2022-11-17 17:48:41,92536
5ddea5f1cf08aae150362282,ma_choice_v4_movie_observers_real1,5ddea5f1cf08aae150362282,2,good action,1,Good,Very Good,direction,1813,,,,,2022-11-17 17:48:41,92537
5ddea5f1cf08aae150362282,ma_choice_v4_movie_observers_real1,5ddea5f1cf08aae150362282,3,great acting,1,Very Bad,Very Good,direction,6563,,,,,2022-11-17 17:48:49,92538
612274842d4805447451f87b,ma_choice_v4_movie_observers_real1,612274842d4805447451f87b,7,awesome soundtrack,18,,,wad_att_rating,9330,,,,,2022-11-17 17:48:50,92539
5f933204ec8f5f0df7afa903,ma_choice_v4_movie_observers_real1,5f933204ec8f5f0df7afa903,3,visual,50,,,wad_att_rating,6613,,,,,2022-11-17 17:48:51,92540
5ddea5f1cf08aae150362282,ma_choice_v4_movie_observers_real1,5ddea5f1cf08aae150362282,3,great acting,1,Very Bad,Bad,direction,2202,,,,,2022-11-17 17:48:51,92541
5ddea5f1cf08aae150362282,ma_choice_v4_movie_observers_real1,5ddea5f1cf08aae150362282,3,great acting,1,Bad,Moderate,direction,1793,,,,,2022-11-17 17:48:53,92542
56a68b2d9ce1c0000cf89299,ma_choice_v4_movie_observers_real1,56a68b2d9ce1c0000cf89299,1,awesome soundtrack,1,Very Bad,Very Good,direction,14152,,,,,2022-11-17 17:48:53,92543
612274842d4805447451f87b,ma_choice_v4_movie_observers_real1,612274842d4805447451f87b,2,romantic,0,,,wad_att_rating,4023,,,,,2022-11-17 17:48:54,92544
5f933204ec8f5f0df7afa903,ma_choice_v4_movie_observers_real1,5f933204ec8f5f0df7afa903,0,artistic,24,,,wad_att_rating,3126,,,,,2022-11-17 17:48:54,92545
5ddea5f1cf08aae150362282,ma_choice_v4_movie_observers_real1,5ddea5f1cf08aae150362282,3,great acting,1,Moderate,Good,direction,1933,,,,,2022-11-17 17:48:55,92546
5ddea5f1cf08aae150362282,ma_choice_v4_movie_observers_real1,5ddea5f1cf08aae150362282,3,great acting,1,Good,Very Good,direction,1803,,,,,2022-11-17 17:48:57,92547
612274842d4805447451f87b,ma_choice_v4_movie_observers_real1,612274842d4805447451f87b,0,artistic,6,,,wad_att_rating,4333,,,,,2022-11-17 17:48:59,92548
56a68b2d9ce1c0000cf89299,ma_choice_v4_movie_observers_real1,56a68b2d9ce1c0000cf89299,1,awesome soundtrack,0,Very Bad,Bad,direction,5632,,,,,2022-11-17 17:48:59,92549
5f933204ec8f5f0df7afa903,ma_choice_v4_movie_observers_real1,5f933204ec8f5f0df7afa903,8,good action,86,,,wad_att_rating,4598,,,,,2022-11-17 17:48:59,92550
5ddea5f1cf08aae150362282,ma_choice_v4_movie_observers_real1,5ddea5f1cf08aae150362282,4,funny,1,Very Bad,Very Good,direction,1634,,,,,2022-11-17 17:49:00,92551
5ddea5f1cf08aae150362282,ma_choice_v4_movie_observers_real1,5ddea5f1cf08aae150362282,4,funny,1,Very Bad,Bad,direction,1883,,,,,2022-11-17 17:49:01,92552
5ddea5f1cf08aae150362282,ma_choice_v4_movie_observers_real1,5ddea5f1cf08aae150362282,4,funny,1,Bad,Moderate,direction,1603,,,,,2022-11-17 17:49:03,92553
5f933204ec8f5f0df7afa903,ma_choice_v4_movie_observers_real1,5f933204ec8f5f0df7afa903,7,awesome soundtrack,49,,,wad_att_rating,4927,,,,,2022-11-17 17:49:04,92554
5ddea5f1cf08aae150362282,ma_choice_v4_movie_observers_real1,5ddea5f1cf08aae150362282,4,funny,1,Moderate,Good,direction,1422,,,,,2022-11-17 17:49:04,92555
612274842d4805447451f87b,ma_choice_v4_movie_observers_real1,612274842d4805447451f87b,8,good action,100,,,wad_att_rating,7010,,,,,2022-11-17 17:49:06,92556
5ddea5f1cf08aae150362282,ma_choice_v4_movie_observers_real1,5ddea5f1cf08aae150362282,4,funny,1,Good,Very Good,direction,1362,,,,,2022-11-17 17:49:06,92557
5f933204ec8f5f0df7afa903,ma_choice_v4_movie_observers_real1,5f933204ec8f5f0df7afa903,2,romantic,25,,,wad_att_rating,3894,,,,,2022-11-17 17:49:08,92558
5ddea5f1cf08aae150362282,ma_choice_v4_movie_observers_real1,5ddea5f1cf08aae150362282,5,awesome soundtrack,1,Very Bad,Very Good,direction,1553,,,,,2022-11-17 17:49:08,92559
5ddea5f1cf08aae150362282,ma_choice_v4_movie_observers_real1,5ddea5f1cf08aae150362282,5,awesome soundtrack,1,Very Bad,Bad,direction,1802,,,,,2022-11-17 17:49:10,92560
5f933204ec8f5f0df7afa903,ma_choice_v4_movie_observers_real1,5f933204ec8f5f0df7afa903,6,dialogue,25,,,wad_att_rating,2685,,,,,2022-11-17 17:49:10,92561
612274842d4805447451f87b,ma_choice_v4_movie_observers_real1,612274842d4805447451f87b,1,funny,25,,,wad_att_rating,5737,,,,,2022-11-17 17:49:11,92562
5ddea5f1cf08aae150362282,ma_choice_v4_movie_observers_real1,5ddea5f1cf08aae150362282,5,awesome soundtrack,1,Bad,Moderate,direction,1344,,,,,2022-11-17 17:49:11,92563
5ddea5f1cf08aae150362282,ma_choice_v4_movie_observers_real1,5ddea5f1cf08aae150362282,5,awesome soundtrack,1,Moderate,Good,direction,1323,,,,,2022-11-17 17:49:13,92564
5f933204ec8f5f0df7afa903,ma_choice_v4_movie_observers_real1,5f933204ec8f5f0df7afa903,1,funny,48,,,wad_att_rating,2910,,,,,2022-11-17 17:49:13,92565
5ddea5f1cf08aae150362282,ma_choice_v4_movie_observers_real1,5ddea5f1cf08aae150362282,5,awesome soundtrack,1,Good,Very Good,direction,2081,,,,,2022-11-17 17:49:15,92566
5ddea5f1cf08aae150362282,ma_choice_v4_movie_observers_real1,5ddea5f1cf08aae150362282,6,dialogue,1,Very Bad,Very Good,direction,2163,,,,,2022-11-17 17:49:18,92567
56a68b2d9ce1c0000cf89299,ma_choice_v4_movie_observers_real1,56a68b2d9ce1c0000cf89299,1,awesome soundtrack,1,Bad,Moderate,direction,19365,,,,,2022-11-17 17:49:18,92568
5f933204ec8f5f0df7afa903,ma_choice_v4_movie_observers_real1,5f933204ec8f5f0df7afa903,4,great acting,37,,,wad_att_rating,5326,,,,,2022-11-17 17:49:19,92569
5ddea5f1cf08aae150362282,ma_choice_v4_movie_observers_real1,5ddea5f1cf08aae150362282,6,dialogue,1,Very Bad,Bad,direction,2627,,,,,2022-11-17 17:49:20,92570
5ddea5f1cf08aae150362282,ma_choice_v4_movie_observers_real1,5ddea5f1cf08aae150362282,6,dialogue,1,Bad,Moderate,direction,1503,,,,,2022-11-17 17:49:22,92571
56a68b2d9ce1c0000cf89299,ma_choice_v4_movie_observers_real1,56a68b2d9ce1c0000cf89299,1,awesome soundtrack,0,Moderate,Good,direction,4170,,,,,2022-11-17 17:49:22,92572
5f933204ec8f5f0df7afa903,ma_choice_v4_movie_observers_real1,5f933204ec8f5f0df7afa903,5,plot,37,,,wad_att_rating,3950,,,,,2022-11-17 17:49:23,92573
5ddea5f1cf08aae150362282,ma_choice_v4_movie_observers_real1,5ddea5f1cf08aae150362282,6,dialogue,1,Moderate,Good,direction,1983,,,,,2022-11-17 17:49:24,92574
5ddea5f1cf08aae150362282,ma_choice_v4_movie_observers_real1,5ddea5f1cf08aae150362282,6,dialogue,1,Good,Very Good,direction,1565,,,,,2022-11-17 17:49:26,92575
56a68b2d9ce1c0000cf89299,ma_choice_v4_movie_observers_real1,56a68b2d9ce1c0000cf89299,1,awesome soundtrack,0,Good,Very Good,direction,3961,,,,,2022-11-17 17:49:26,92576
5ddea5f1cf08aae150362282,ma_choice_v4_movie_observers_real1,5ddea5f1cf08aae150362282,7,visual,1,Very Bad,Very Good,direction,1534,,,,,2022-11-17 17:49:31,92577
5ddea5f1cf08aae150362282,ma_choice_v4_movie_observers_real1,5ddea5f1cf08aae150362282,7,visual,1,Very Bad,Bad,direction,1893,,,,,2022-11-17 17:49:34,92578
5ddea5f1cf08aae150362282,ma_choice_v4_movie_observers_real1,5ddea5f1cf08aae150362282,7,visual,1,Bad,Moderate,direction,1402,,,,,2022-11-17 17:49:34,92579
5ddea5f1cf08aae150362282,ma_choice_v4_movie_observers_real1,5ddea5f1cf08aae150362282,7,visual,1,Moderate,Good,direction,1972,,,,,2022-11-17 17:49:36,92580
5ddea5f1cf08aae150362282,ma_choice_v4_movie_observers_real1,5ddea5f1cf08aae150362282,7,visual,1,Good,Very Good,direction,1423,,,,,2022-11-17 17:49:38,92581
5ddea5f1cf08aae150362282,ma_choice_v4_movie_observers_real1,5ddea5f1cf08aae150362282,8,artistic,1,Very Bad,Very Good,direction,1443,,,,,2022-11-17 17:49:41,92582
5ddea5f1cf08aae150362282,ma_choice_v4_movie_observers_real1,5ddea5f1cf08aae150362282,8,artistic,1,Very Bad,Bad,direction,1964,,,,,2022-11-17 17:49:43,92583
5ddea5f1cf08aae150362282,ma_choice_v4_movie_observers_real1,5ddea5f1cf08aae150362282,8,artistic,1,Bad,Moderate,direction,1611,,,,,2022-11-17 17:49:44,92584
5ddea5f1cf08aae150362282,ma_choice_v4_movie_observers_real1,5ddea5f1cf08aae150362282,8,artistic,1,Moderate,Good,direction,1384,,,,,2022-11-17 17:49:46,92585
5ddea5f1cf08aae150362282,ma_choice_v4_movie_observers_real1,5ddea5f1cf08aae150362282,8,artistic,1,Good,Very Good,direction,1462,,,,,2022-11-17 17:49:47,92586
56a68b2d9ce1c0000cf89299,ma_choice_v4_movie_observers_real1,56a68b2d9ce1c0000cf89299,2,artistic,0,Very Bad,Very Good,direction,7030,,,,,2022-11-17 17:49:50,92587
56a68b2d9ce1c0000cf89299,ma_choice_v4_movie_observers_real1,56a68b2d9ce1c0000cf89299,2,artistic,1,Very Bad,Bad,direction,2026,,,,,2022-11-17 17:49:52,92588
56a68b2d9ce1c0000cf89299,ma_choice_v4_movie_observers_real1,56a68b2d9ce1c0000cf89299,2,artistic,0,Bad,Moderate,direction,2390,,,,,2022-11-17 17:49:55,92589
56a68b2d9ce1c0000cf89299,ma_choice_v4_movie_observers_real1,56a68b2d9ce1c0000cf89299,2,artistic,0,Moderate,Good,direction,4270,,,,,2022-11-17 17:49:59,92590
56a68b2d9ce1c0000cf89299,ma_choice_v4_movie_observers_real1,56a68b2d9ce1c0000cf89299,2,artistic,0,Good,Very Good,direction,2259,,,,,2022-11-17 17:50:01,92591
56a68b2d9ce1c0000cf89299,ma_choice_v4_movie_observers_real1,56a68b2d9ce1c0000cf89299,3,plot,1,Very Bad,Very Good,direction,1988,,,,,2022-11-17 17:50:05,92592
56a68b2d9ce1c0000cf89299,ma_choice_v4_movie_observers_real1,56a68b2d9ce1c0000cf89299,3,plot,1,Very Bad,Bad,direction,2881,,,,,2022-11-17 17:50:08,92593
56a68b2d9ce1c0000cf89299,ma_choice_v4_movie_observers_real1,56a68b2d9ce1c0000cf89299,3,plot,1,Bad,Moderate,direction,1933,,,,,2022-11-17 17:50:10,92594
56a68b2d9ce1c0000cf89299,ma_choice_v4_movie_observers_real1,56a68b2d9ce1c0000cf89299,3,plot,1,Moderate,Good,direction,3006,,,,,2022-11-17 17:50:13,92595
56a68b2d9ce1c0000cf89299,ma_choice_v4_movie_observers_real1,56a68b2d9ce1c0000cf89299,3,plot,1,Good,Very Good,direction,1941,,,,,2022-11-17 17:50:15,92596
56a68b2d9ce1c0000cf89299,ma_choice_v4_movie_observers_real1,56a68b2d9ce1c0000cf89299,4,romantic,0,Very Bad,Very Good,direction,2190,,,,,2022-11-17 17:50:19,92597
56a68b2d9ce1c0000cf89299,ma_choice_v4_movie_observers_real1,56a68b2d9ce1c0000cf89299,4,romantic,1,Very Bad,Bad,direction,2641,,,,,2022-11-17 17:50:21,92598
56a68b2d9ce1c0000cf89299,ma_choice_v4_movie_observers_real1,56a68b2d9ce1c0000cf89299,4,romantic,0,Bad,Moderate,direction,4778,,,,,2022-11-17 17:50:26,92599
5c7db851461e90001c7a06ce,ma_choice_v4_movie_observers_real1,5c7db851461e90001c7a06ce,0,Acting,1,,,lex_att_rating,7075,,,,,2022-11-17 17:50:28,92600
56a68b2d9ce1c0000cf89299,ma_choice_v4_movie_observers_real1,56a68b2d9ce1c0000cf89299,4,romantic,0,Moderate,Good,direction,6605,,,,,2022-11-17 17:50:33,92601
56a68b2d9ce1c0000cf89299,ma_choice_v4_movie_observers_real1,56a68b2d9ce1c0000cf89299,4,romantic,0,Good,Very Good,direction,1606,,,,,2022-11-17 17:50:34,92602
61006614d4c56450afce3a6b,ma_choice_v4_movie_observers_real1,61006614d4c56450afce3a6b,0,romantic,1,Very Bad,Very Good,direction,14548,,,,,2022-11-17 17:50:37,92603
5c7db851461e90001c7a06ce,ma_choice_v4_movie_observers_real1,5c7db851461e90001c7a06ce,1,funny,50,,,wad_att_rating,5373,,,,,2022-11-17 17:50:38,92604
56a68b2d9ce1c0000cf89299,ma_choice_v4_movie_observers_real1,56a68b2d9ce1c0000cf89299,5,great acting,1,Very Bad,Very Good,direction,4056,,,,,2022-11-17 17:50:39,92605
61006614d4c56450afce3a6b,ma_choice_v4_movie_observers_real1,61006614d4c56450afce3a6b,0,romantic,1,Very Bad,Bad,direction,4958,,,,,2022-11-17 17:50:42,92606
56a68b2d9ce1c0000cf89299,ma_choice_v4_movie_observers_real1,56a68b2d9ce1c0000cf89299,5,great acting,1,Very Bad,Bad,direction,2803,,,,,2022-11-17 17:50:42,92607
56a68b2d9ce1c0000cf89299,ma_choice_v4_movie_observers_real1,56a68b2d9ce1c0000cf89299,5,great acting,0,Bad,Moderate,direction,2804,,,,,2022-11-17 17:50:45,92608
5c7db851461e90001c7a06ce,ma_choice_v4_movie_observers_real1,5c7db851461e90001c7a06ce,7,awesome soundtrack,70,,,wad_att_rating,7306,,,,,2022-11-17 17:50:45,92609
